Subject,TrialProc,Trial,Accuracy,RT,Target,FixationDuration,SessionDate,SessionTime
12000,practice,1,1,654,Q,2000,02-18-2015,12:39:50
12000,practice,2,1,556,Q,1000,02-18-2015,12:39:50
12000,practice,3,1,550,O,1000,02-18-2015,12:39:50
12000,practice,4,1,400,Q,2000,02-18-2015,12:39:50
12000,practice,5,1,417,Q,1000,02-18-2015,12:39:50
12000,practice,6,0,680,Q,2000,02-18-2015,12:39:50
12000,practice,7,1,382,Q,2000,02-18-2015,12:39:50
12000,practice,8,1,327,Q,1000,02-18-2015,12:39:50
12000,practice,9,1,394,O,1000,02-18-2015,12:39:50
12000,practice,10,1,492,O,2000,02-18-2015,12:39:50
12000,practice,11,1,512,O,1000,02-18-2015,12:39:50
12000,practice,12,1,348,O,2000,02-18-2015,12:39:50
12000,practice,13,0,446,Q,1000,02-18-2015,12:39:50
12000,practice,14,1,398,O,2000,02-18-2015,12:39:50
12000,practice,15,1,615,O,1000,02-18-2015,12:39:50
12000,practice,16,1,406,O,2000,02-18-2015,12:39:50
12000,real,1,1,441,Q,1000,02-18-2015,12:39:50
12000,real,2,1,335,O,2000,02-18-2015,12:39:50
12000,real,3,1,291,O,2000,02-18-2015,12:39:50
12000,real,4,0,407,Q,1000,02-18-2015,12:39:50
12000,real,5,1,359,Q,2000,02-18-2015,12:39:50
12000,real,6,1,274,Q,1000,02-18-2015,12:39:50
12000,real,7,0,1422,Q,1000,02-18-2015,12:39:50
12000,real,8,1,350,Q,1000,02-18-2015,12:39:50
12000,real,9,1,312,O,2000,02-18-2015,12:39:50
12000,real,10,1,357,O,2000,02-18-2015,12:39:50
12000,real,11,1,278,O,1000,02-18-2015,12:39:50
12000,real,12,1,396,O,2000,02-18-2015,12:39:50
12000,real,13,1,261,O,1000,02-18-2015,12:39:50
12000,real,14,1,515,O,1000,02-18-2015,12:39:50
12000,real,15,1,318,O,1000,02-18-2015,12:39:50
12000,real,16,1,354,Q,1000,02-18-2015,12:39:50
12000,real,17,1,308,Q,2000,02-18-2015,12:39:50
12000,real,18,1,288,Q,2000,02-18-2015,12:39:50
12000,real,19,1,309,Q,2000,02-18-2015,12:39:50
12000,real,20,1,393,O,1000,02-18-2015,12:39:50
12000,real,21,1,968,Q,1000,02-18-2015,12:39:50
12000,real,22,1,306,O,2000,02-18-2015,12:39:50
12000,real,23,1,414,O,2000,02-18-2015,12:39:50
12000,real,24,1,294,Q,2000,02-18-2015,12:39:50
12000,real,25,1,259,Q,2000,02-18-2015,12:39:50
12000,real,26,1,241,O,1000,02-18-2015,12:39:50
12000,real,27,1,336,Q,1000,02-18-2015,12:39:50
12000,real,28,1,282,Q,1000,02-18-2015,12:39:50
12000,real,29,1,296,Q,2000,02-18-2015,12:39:50
12000,real,30,1,261,O,1000,02-18-2015,12:39:50
12000,real,31,1,283,Q,1000,02-18-2015,12:39:50
12000,real,32,1,352,O,1000,02-18-2015,12:39:50
12000,real,33,1,306,Q,1000,02-18-2015,12:39:50
12000,real,34,1,606,O,1000,02-18-2015,12:39:50
12000,real,35,1,358,O,2000,02-18-2015,12:39:50
12000,real,36,1,240,Q,2000,02-18-2015,12:39:50
12000,real,37,1,319,O,1000,02-18-2015,12:39:50
12000,real,38,1,306,Q,2000,02-18-2015,12:39:50
12000,real,39,1,591,O,1000,02-18-2015,12:39:50
12000,real,40,1,280,Q,1000,02-18-2015,12:39:50
12000,real,41,1,356,O,2000,02-18-2015,12:39:50
12000,real,42,1,310,O,2000,02-18-2015,12:39:50
12000,real,43,1,490,O,2000,02-18-2015,12:39:50
12000,real,44,1,319,Q,2000,02-18-2015,12:39:50
12000,real,45,1,258,Q,2000,02-18-2015,12:39:50
12000,real,46,1,3057,O,1000,02-18-2015,12:39:50
12000,real,47,0,1054,Q,2000,02-18-2015,12:39:50
12000,real,48,0,245,O,2000,02-18-2015,12:39:50
12002,practice,1,1,438,Q,2000,02-18-2015,15:37:06
12002,practice,2,1,868,Q,2000,02-18-2015,15:37:06
12002,practice,3,1,402,Q,1000,02-18-2015,15:37:06
12002,practice,4,1,546,O,1000,02-18-2015,15:37:06
12002,practice,5,1,358,O,1000,02-18-2015,15:37:06
12002,practice,6,1,352,O,2000,02-18-2015,15:37:06
12002,practice,7,0,570,O,2000,02-18-2015,15:37:06
12002,practice,8,1,564,Q,1000,02-18-2015,15:37:06
12002,practice,9,1,437,O,2000,02-18-2015,15:37:06
12002,practice,10,1,372,Q,2000,02-18-2015,15:37:06
12002,practice,11,1,549,Q,2000,02-18-2015,15:37:06
12002,practice,12,1,392,O,1000,02-18-2015,15:37:06
12002,practice,13,1,457,Q,1000,02-18-2015,15:37:06
12002,practice,14,1,454,Q,1000,02-18-2015,15:37:06
12002,practice,15,0,749,O,1000,02-18-2015,15:37:06
12002,practice,16,1,495,O,2000,02-18-2015,15:37:06
12002,real,1,1,340,Q,2000,02-18-2015,15:37:06
12002,real,2,1,374,O,1000,02-18-2015,15:37:06
12002,real,3,1,376,O,2000,02-18-2015,15:37:06
12002,real,4,1,338,Q,2000,02-18-2015,15:37:06
12002,real,5,1,308,O,1000,02-18-2015,15:37:06
12002,real,6,1,1081,O,1000,02-18-2015,15:37:06
12002,real,7,1,326,Q,2000,02-18-2015,15:37:06
12002,real,8,1,442,Q,2000,02-18-2015,15:37:06
12002,real,9,1,338,Q,1000,02-18-2015,15:37:06
12002,real,10,1,717,Q,1000,02-18-2015,15:37:06
12002,real,11,0,825,O,1000,02-18-2015,15:37:06
12002,real,12,1,439,Q,1000,02-18-2015,15:37:06
12002,real,13,1,439,Q,2000,02-18-2015,15:37:06
12002,real,14,1,446,Q,1000,02-18-2015,15:37:06
12002,real,15,1,572,O,2000,02-18-2015,15:37:06
12002,real,16,1,374,O,1000,02-18-2015,15:37:06
12002,real,17,1,575,Q,1000,02-18-2015,15:37:06
12002,real,18,1,377,O,2000,02-18-2015,15:37:06
12002,real,19,0,538,O,2000,02-18-2015,15:37:06
12002,real,20,1,517,Q,2000,02-18-2015,15:37:06
12002,real,21,1,604,O,1000,02-18-2015,15:37:06
12002,real,22,1,389,O,2000,02-18-2015,15:37:06
12002,real,23,1,325,Q,1000,02-18-2015,15:37:06
12002,real,24,0,657,O,2000,02-18-2015,15:37:06
12002,real,25,0,566,Q,2000,02-18-2015,15:37:06
12002,real,26,1,319,Q,1000,02-18-2015,15:37:06
12002,real,27,1,451,O,1000,02-18-2015,15:37:06
12002,real,28,1,369,O,2000,02-18-2015,15:37:06
12002,real,29,1,419,O,1000,02-18-2015,15:37:06
12002,real,30,1,362,O,1000,02-18-2015,15:37:06
12002,real,31,1,388,Q,1000,02-18-2015,15:37:06
12002,real,32,1,422,Q,2000,02-18-2015,15:37:06
12002,real,33,1,413,O,1000,02-18-2015,15:37:06
12002,real,34,0,749,Q,2000,02-18-2015,15:37:06
12002,real,35,1,391,O,2000,02-18-2015,15:37:06
12002,real,36,1,456,O,1000,02-18-2015,15:37:06
12002,real,37,1,375,Q,2000,02-18-2015,15:37:06
12002,real,38,1,384,O,2000,02-18-2015,15:37:06
12002,real,39,0,786,O,2000,02-18-2015,15:37:06
12002,real,40,1,331,Q,1000,02-18-2015,15:37:06
12002,real,41,1,613,Q,1000,02-18-2015,15:37:06
12002,real,42,1,309,Q,2000,02-18-2015,15:37:06
12002,real,43,1,329,O,2000,02-18-2015,15:37:06
12002,real,44,1,460,Q,1000,02-18-2015,15:37:06
12002,real,45,1,291,Q,1000,02-18-2015,15:37:06
12002,real,46,1,248,Q,2000,02-18-2015,15:37:06
12002,real,47,1,662,O,2000,02-18-2015,15:37:06
12002,real,48,1,405,O,1000,02-18-2015,15:37:06
12006,practice,1,1,537,Q,1000,02-20-2015,09:54:35
12006,practice,2,1,429,O,2000,02-20-2015,09:54:35
12006,practice,3,1,1190,Q,2000,02-20-2015,09:54:35
12006,practice,4,1,288,O,2000,02-20-2015,09:54:35
12006,practice,5,1,501,Q,1000,02-20-2015,09:54:35
12006,practice,6,1,610,Q,1000,02-20-2015,09:54:35
12006,practice,7,1,443,O,1000,02-20-2015,09:54:35
12006,practice,8,0,963,O,2000,02-20-2015,09:54:35
12006,practice,9,1,613,Q,2000,02-20-2015,09:54:35
12006,practice,10,1,621,O,1000,02-20-2015,09:54:35
12006,practice,11,1,615,O,1000,02-20-2015,09:54:35
12006,practice,12,1,439,O,2000,02-20-2015,09:54:35
12006,practice,13,1,439,Q,1000,02-20-2015,09:54:35
12006,practice,14,1,534,O,1000,02-20-2015,09:54:35
12006,practice,15,1,458,Q,2000,02-20-2015,09:54:35
12006,practice,16,1,672,Q,2000,02-20-2015,09:54:35
12006,real,1,1,653,O,2000,02-20-2015,09:54:35
12006,real,2,1,652,O,2000,02-20-2015,09:54:35
12006,real,3,1,378,O,2000,02-20-2015,09:54:35
12006,real,4,1,381,Q,1000,02-20-2015,09:54:35
12006,real,5,1,431,O,1000,02-20-2015,09:54:35
12006,real,6,1,359,Q,2000,02-20-2015,09:54:35
12006,real,7,1,562,Q,2000,02-20-2015,09:54:35
12006,real,8,1,453,Q,2000,02-20-2015,09:54:35
12006,real,9,1,364,Q,2000,02-20-2015,09:54:35
12006,real,10,0,750,O,1000,02-20-2015,09:54:35
12006,real,11,1,634,O,2000,02-20-2015,09:54:35
12006,real,12,1,488,O,2000,02-20-2015,09:54:35
12006,real,13,1,447,O,2000,02-20-2015,09:54:35
12006,real,14,1,415,O,1000,02-20-2015,09:54:35
12006,real,15,1,352,Q,1000,02-20-2015,09:54:35
12006,real,16,1,377,Q,2000,02-20-2015,09:54:35
12006,real,17,1,437,O,2000,02-20-2015,09:54:35
12006,real,18,1,397,Q,2000,02-20-2015,09:54:35
12006,real,19,1,573,O,1000,02-20-2015,09:54:35
12006,real,20,1,360,O,1000,02-20-2015,09:54:35
12006,real,21,1,660,O,1000,02-20-2015,09:54:35
12006,real,22,1,1268,O,2000,02-20-2015,09:54:35
12006,real,23,1,458,Q,2000,02-20-2015,09:54:35
12006,real,24,0,321,O,2000,02-20-2015,09:54:35
12006,real,25,1,533,O,1000,02-20-2015,09:54:35
12006,real,26,1,488,Q,2000,02-20-2015,09:54:35
12006,real,27,1,742,Q,1000,02-20-2015,09:54:35
12006,real,28,1,466,O,2000,02-20-2015,09:54:35
12006,real,29,1,528,Q,1000,02-20-2015,09:54:35
12006,real,30,1,660,O,2000,02-20-2015,09:54:35
12006,real,31,1,555,Q,1000,02-20-2015,09:54:35
12006,real,32,1,606,O,2000,02-20-2015,09:54:35
12006,real,33,1,709,O,1000,02-20-2015,09:54:35
12006,real,34,1,666,O,1000,02-20-2015,09:54:35
12006,real,35,1,794,Q,2000,02-20-2015,09:54:35
12006,real,36,1,650,Q,1000,02-20-2015,09:54:35
12006,real,37,1,434,Q,1000,02-20-2015,09:54:35
12006,real,38,0,770,O,1000,02-20-2015,09:54:35
12006,real,39,1,571,Q,2000,02-20-2015,09:54:35
12006,real,40,1,509,Q,2000,02-20-2015,09:54:35
12006,real,41,1,611,Q,1000,02-20-2015,09:54:35
12006,real,42,1,412,Q,1000,02-20-2015,09:54:35
12006,real,43,1,621,O,1000,02-20-2015,09:54:35
12006,real,44,1,470,O,1000,02-20-2015,09:54:35
12006,real,45,1,492,Q,2000,02-20-2015,09:54:35
12006,real,46,1,442,Q,1000,02-20-2015,09:54:35
12006,real,47,1,442,Q,1000,02-20-2015,09:54:35
12006,real,48,0,1161,Q,1000,02-20-2015,09:54:35
12008,practice,1,0,645,O,1000,02-20-2015,12:36:19
12008,practice,2,1,469,O,2000,02-20-2015,12:36:19
12008,practice,3,1,499,Q,1000,02-20-2015,12:36:19
12008,practice,4,1,648,Q,2000,02-20-2015,12:36:19
12008,practice,5,1,383,Q,1000,02-20-2015,12:36:19
12008,practice,6,1,345,Q,2000,02-20-2015,12:36:19
12008,practice,7,1,397,O,1000,02-20-2015,12:36:19
12008,practice,8,1,782,O,1000,02-20-2015,12:36:19
12008,practice,9,1,728,Q,2000,02-20-2015,12:36:19
12008,practice,10,1,629,Q,2000,02-20-2015,12:36:19
12008,practice,11,0,500,O,2000,02-20-2015,12:36:19
12008,practice,12,1,513,Q,1000,02-20-2015,12:36:19
12008,practice,13,1,558,O,1000,02-20-2015,12:36:19
12008,practice,14,1,377,Q,1000,02-20-2015,12:36:19
12008,practice,15,0,436,O,2000,02-20-2015,12:36:19
12008,practice,16,0,459,O,2000,02-20-2015,12:36:19
12008,real,1,0,501,O,2000,02-20-2015,12:36:19
12008,real,2,0,369,O,1000,02-20-2015,12:36:19
12008,real,3,1,556,Q,2000,02-20-2015,12:36:19
12008,real,4,0,807,Q,1000,02-20-2015,12:36:19
12008,real,5,1,312,Q,1000,02-20-2015,12:36:19
12008,real,6,0,709,O,2000,02-20-2015,12:36:19
12008,real,7,1,416,Q,2000,02-20-2015,12:36:19
12008,real,8,0,409,O,2000,02-20-2015,12:36:19
12008,real,9,1,450,Q,2000,02-20-2015,12:36:19
12008,real,10,0,392,O,2000,02-20-2015,12:36:19
12008,real,11,0,498,O,2000,02-20-2015,12:36:19
12008,real,12,1,376,Q,2000,02-20-2015,12:36:19
12008,real,13,1,729,Q,1000,02-20-2015,12:36:19
12008,real,14,1,998,Q,2000,02-20-2015,12:36:19
12008,real,15,0,552,O,2000,02-20-2015,12:36:19
12008,real,16,1,563,O,1000,02-20-2015,12:36:19
12008,real,17,1,390,O,2000,02-20-2015,12:36:19
12008,real,18,1,423,Q,1000,02-20-2015,12:36:19
12008,real,19,1,720,Q,2000,02-20-2015,12:36:19
12008,real,20,0,605,O,2000,02-20-2015,12:36:19
12008,real,21,0,415,O,2000,02-20-2015,12:36:19
12008,real,22,1,664,Q,2000,02-20-2015,12:36:19
12008,real,23,1,328,Q,2000,02-20-2015,12:36:19
12008,real,24,1,395,O,1000,02-20-2015,12:36:19
12008,real,25,0,509,O,1000,02-20-2015,12:36:19
12008,real,26,1,762,Q,1000,02-20-2015,12:36:19
12008,real,27,1,436,Q,2000,02-20-2015,12:36:19
12008,real,28,1,517,Q,1000,02-20-2015,12:36:19
12008,real,29,1,506,Q,2000,02-20-2015,12:36:19
12008,real,30,1,454,O,1000,02-20-2015,12:36:19
12008,real,31,0,773,O,1000,02-20-2015,12:36:19
12008,real,32,1,639,O,2000,02-20-2015,12:36:19
12008,real,33,1,391,Q,1000,02-20-2015,12:36:19
12008,real,34,1,648,Q,1000,02-20-2015,12:36:19
12008,real,35,0,592,O,1000,02-20-2015,12:36:19
12008,real,36,1,378,Q,1000,02-20-2015,12:36:19
12008,real,37,1,1595,O,1000,02-20-2015,12:36:19
12008,real,38,1,405,Q,2000,02-20-2015,12:36:19
12008,real,39,0,510,O,2000,02-20-2015,12:36:19
12008,real,40,1,379,Q,1000,02-20-2015,12:36:19
12008,real,41,0,511,O,1000,02-20-2015,12:36:19
12008,real,42,1,788,Q,2000,02-20-2015,12:36:19
12008,real,43,1,454,Q,1000,02-20-2015,12:36:19
12008,real,44,1,414,O,2000,02-20-2015,12:36:19
12008,real,45,1,606,O,1000,02-20-2015,12:36:19
12008,real,46,1,1015,O,1000,02-20-2015,12:36:19
12008,real,47,1,752,Q,1000,02-20-2015,12:36:19
12008,real,48,1,627,O,1000,02-20-2015,12:36:19
12010,practice,1,1,487,Q,2000,02-20-2015,13:47:00
12010,practice,2,1,300,O,2000,02-20-2015,13:47:00
12010,practice,3,1,384,O,1000,02-20-2015,13:47:00
12010,practice,4,1,818,O,1000,02-20-2015,13:47:00
12010,practice,5,1,507,O,2000,02-20-2015,13:47:00
12010,practice,6,1,407,Q,1000,02-20-2015,13:47:00
12010,practice,7,1,728,Q,1000,02-20-2015,13:47:00
12010,practice,8,1,388,O,2000,02-20-2015,13:47:00
12010,practice,9,1,462,Q,2000,02-20-2015,13:47:00
12010,practice,10,1,397,O,1000,02-20-2015,13:47:00
12010,practice,11,1,439,O,2000,02-20-2015,13:47:00
12010,practice,12,0,710,O,1000,02-20-2015,13:47:00
12010,practice,13,1,411,Q,1000,02-20-2015,13:47:00
12010,practice,14,1,732,Q,1000,02-20-2015,13:47:00
12010,practice,15,1,375,Q,2000,02-20-2015,13:47:00
12010,practice,16,1,433,Q,2000,02-20-2015,13:47:00
12010,real,1,1,801,Q,2000,02-20-2015,13:47:00
12010,real,2,1,393,O,2000,02-20-2015,13:47:00
12010,real,3,1,378,O,1000,02-20-2015,13:47:00
12010,real,4,1,413,Q,1000,02-20-2015,13:47:00
12010,real,5,1,342,O,2000,02-20-2015,13:47:00
12010,real,6,1,440,O,1000,02-20-2015,13:47:00
12010,real,7,1,288,O,2000,02-20-2015,13:47:00
12010,real,8,1,470,O,1000,02-20-2015,13:47:00
12010,real,9,1,420,Q,1000,02-20-2015,13:47:00
12010,real,10,1,422,O,1000,02-20-2015,13:47:00
12010,real,11,1,285,O,2000,02-20-2015,13:47:00
12010,real,12,0,1018,Q,2000,02-20-2015,13:47:00
12010,real,13,1,531,Q,1000,02-20-2015,13:47:00
12010,real,14,1,519,Q,2000,02-20-2015,13:47:00
12010,real,15,1,322,O,1000,02-20-2015,13:47:00
12010,real,16,1,280,O,1000,02-20-2015,13:47:00
12010,real,17,1,343,O,2000,02-20-2015,13:47:00
12010,real,18,1,547,O,2000,02-20-2015,13:47:00
12010,real,19,1,605,Q,1000,02-20-2015,13:47:00
12010,real,20,1,407,O,1000,02-20-2015,13:47:00
12010,real,21,1,596,Q,2000,02-20-2015,13:47:00
12010,real,22,1,494,Q,1000,02-20-2015,13:47:00
12010,real,23,1,300,O,1000,02-20-2015,13:47:00
12010,real,24,1,344,Q,2000,02-20-2015,13:47:00
12010,real,25,1,364,Q,1000,02-20-2015,13:47:00
12010,real,26,1,391,Q,2000,02-20-2015,13:47:00
12010,real,27,1,288,Q,2000,02-20-2015,13:47:00
12010,real,28,1,804,Q,1000,02-20-2015,13:47:00
12010,real,29,1,430,O,2000,02-20-2015,13:47:00
12010,real,30,1,910,O,1000,02-20-2015,13:47:00
12010,real,31,1,379,O,1000,02-20-2015,13:47:00
12010,real,32,1,301,Q,1000,02-20-2015,13:47:00
12010,real,33,1,394,Q,2000,02-20-2015,13:47:00
12010,real,34,1,315,Q,1000,02-20-2015,13:47:00
12010,real,35,1,472,O,2000,02-20-2015,13:47:00
12010,real,36,1,372,Q,1000,02-20-2015,13:47:00
12010,real,37,1,470,Q,1000,02-20-2015,13:47:00
12010,real,38,1,325,Q,1000,02-20-2015,13:47:00
12010,real,39,1,385,Q,2000,02-20-2015,13:47:00
12010,real,40,1,467,O,1000,02-20-2015,13:47:00
12010,real,41,1,545,O,2000,02-20-2015,13:47:00
12010,real,42,1,245,O,2000,02-20-2015,13:47:00
12010,real,43,1,285,O,1000,02-20-2015,13:47:00
12010,real,44,1,362,Q,2000,02-20-2015,13:47:00
12010,real,45,0,596,Q,2000,02-20-2015,13:47:00
12010,real,46,1,439,O,2000,02-20-2015,13:47:00
12010,real,47,1,447,O,2000,02-20-2015,13:47:00
12010,real,48,1,503,Q,2000,02-20-2015,13:47:00
12012,practice,1,1,579,O,1000,02-20-2015,15:03:48
12012,practice,2,1,685,Q,1000,02-20-2015,15:03:48
12012,practice,3,1,667,Q,2000,02-20-2015,15:03:48
12012,practice,4,1,505,Q,2000,02-20-2015,15:03:48
12012,practice,5,1,717,O,2000,02-20-2015,15:03:48
12012,practice,6,1,481,O,1000,02-20-2015,15:03:48
12012,practice,7,1,431,Q,1000,02-20-2015,15:03:48
12012,practice,8,0,767,O,1000,02-20-2015,15:03:48
12012,practice,9,1,441,O,2000,02-20-2015,15:03:48
12012,practice,10,1,457,Q,1000,02-20-2015,15:03:48
12012,practice,11,1,463,Q,2000,02-20-2015,15:03:48
12012,practice,12,1,470,O,2000,02-20-2015,15:03:48
12012,practice,13,1,468,O,1000,02-20-2015,15:03:48
12012,practice,14,1,435,Q,1000,02-20-2015,15:03:48
12012,practice,15,1,697,O,2000,02-20-2015,15:03:48
12012,practice,16,1,552,Q,2000,02-20-2015,15:03:48
12012,real,1,1,455,O,1000,02-20-2015,15:03:48
12012,real,2,1,694,O,1000,02-20-2015,15:03:48
12012,real,3,1,483,Q,2000,02-20-2015,15:03:48
12012,real,4,1,528,Q,1000,02-20-2015,15:03:48
12012,real,5,1,788,O,2000,02-20-2015,15:03:48
12012,real,6,1,454,O,1000,02-20-2015,15:03:48
12012,real,7,1,396,O,2000,02-20-2015,15:03:48
12012,real,8,1,445,O,1000,02-20-2015,15:03:48
12012,real,9,1,470,Q,2000,02-20-2015,15:03:48
12012,real,10,1,564,Q,1000,02-20-2015,15:03:48
12012,real,11,0,646,O,2000,02-20-2015,15:03:48
12012,real,12,1,566,O,2000,02-20-2015,15:03:48
12012,real,13,1,408,O,2000,02-20-2015,15:03:48
12012,real,14,1,496,O,2000,02-20-2015,15:03:48
12012,real,15,1,391,O,2000,02-20-2015,15:03:48
12012,real,16,1,456,Q,1000,02-20-2015,15:03:48
12012,real,17,1,598,Q,1000,02-20-2015,15:03:48
12012,real,18,1,400,O,1000,02-20-2015,15:03:48
12012,real,19,1,386,O,1000,02-20-2015,15:03:48
12012,real,20,1,452,Q,1000,02-20-2015,15:03:48
12012,real,21,1,665,O,1000,02-20-2015,15:03:48
12012,real,22,1,384,O,1000,02-20-2015,15:03:48
12012,real,23,1,321,O,1000,02-20-2015,15:03:48
12012,real,24,1,389,Q,1000,02-20-2015,15:03:48
12012,real,25,1,447,Q,2000,02-20-2015,15:03:48
12012,real,26,1,350,Q,1000,02-20-2015,15:03:48
12012,real,27,1,361,Q,2000,02-20-2015,15:03:48
12012,real,28,1,404,O,2000,02-20-2015,15:03:48
12012,real,29,1,404,O,1000,02-20-2015,15:03:48
12012,real,30,1,389,O,1000,02-20-2015,15:03:48
12012,real,31,1,495,Q,2000,02-20-2015,15:03:48
12012,real,32,1,406,Q,2000,02-20-2015,15:03:48
12012,real,33,1,462,Q,2000,02-20-2015,15:03:48
12012,real,34,1,365,Q,1000,02-20-2015,15:03:48
12012,real,35,1,424,O,2000,02-20-2015,15:03:48
12012,real,36,1,495,O,2000,02-20-2015,15:03:48
12012,real,37,1,557,Q,1000,02-20-2015,15:03:48
12012,real,38,1,392,Q,1000,02-20-2015,15:03:48
12012,real,39,1,416,O,2000,02-20-2015,15:03:48
12012,real,40,1,257,Q,1000,02-20-2015,15:03:48
12012,real,41,1,273,O,2000,02-20-2015,15:03:48
12012,real,42,1,240,Q,2000,02-20-2015,15:03:48
12012,real,43,1,415,Q,2000,02-20-2015,15:03:48
12012,real,44,1,368,O,1000,02-20-2015,15:03:48
12012,real,45,1,362,Q,2000,02-20-2015,15:03:48
12012,real,46,1,413,Q,1000,02-20-2015,15:03:48
12012,real,47,1,439,Q,2000,02-20-2015,15:03:48
12012,real,48,1,381,Q,2000,02-20-2015,15:03:48
12013,practice,1,1,726,Q,1000,02-20-2015,16:13:47
12013,practice,2,1,393,O,1000,02-20-2015,16:13:47
12013,practice,3,1,555,Q,2000,02-20-2015,16:13:47
12013,practice,4,1,420,O,2000,02-20-2015,16:13:47
12013,practice,5,1,340,O,2000,02-20-2015,16:13:47
12013,practice,6,1,848,Q,2000,02-20-2015,16:13:47
12013,practice,7,1,806,O,2000,02-20-2015,16:13:47
12013,practice,8,1,526,Q,2000,02-20-2015,16:13:47
12013,practice,9,1,473,O,1000,02-20-2015,16:13:47
12013,practice,10,1,463,O,2000,02-20-2015,16:13:47
12013,practice,11,1,421,Q,1000,02-20-2015,16:13:47
12013,practice,12,1,437,Q,2000,02-20-2015,16:13:47
12013,practice,13,1,588,O,1000,02-20-2015,16:13:47
12013,practice,14,1,540,Q,1000,02-20-2015,16:13:47
12013,practice,15,1,439,O,1000,02-20-2015,16:13:47
12013,practice,16,1,421,Q,1000,02-20-2015,16:13:47
12013,real,1,1,448,O,1000,02-20-2015,16:13:47
12013,real,2,1,502,Q,2000,02-20-2015,16:13:47
12013,real,3,1,403,Q,1000,02-20-2015,16:13:47
12013,real,4,1,355,Q,1000,02-20-2015,16:13:47
12013,real,5,1,469,Q,2000,02-20-2015,16:13:47
12013,real,6,1,346,Q,1000,02-20-2015,16:13:47
12013,real,7,1,461,O,2000,02-20-2015,16:13:47
12013,real,8,1,443,O,1000,02-20-2015,16:13:47
12013,real,9,1,402,Q,2000,02-20-2015,16:13:47
12013,real,10,1,690,O,2000,02-20-2015,16:13:47
12013,real,11,1,455,Q,1000,02-20-2015,16:13:47
12013,real,12,1,429,O,1000,02-20-2015,16:13:47
12013,real,13,1,397,O,1000,02-20-2015,16:13:47
12013,real,14,1,518,Q,2000,02-20-2015,16:13:47
12013,real,15,0,945,O,1000,02-20-2015,16:13:47
12013,real,16,1,428,O,2000,02-20-2015,16:13:47
12013,real,17,1,387,Q,2000,02-20-2015,16:13:47
12013,real,18,1,461,O,1000,02-20-2015,16:13:47
12013,real,19,1,467,Q,1000,02-20-2015,16:13:47
12013,real,20,1,480,O,2000,02-20-2015,16:13:47
12013,real,21,0,792,O,1000,02-20-2015,16:13:47
12013,real,22,1,384,O,1000,02-20-2015,16:13:47
12013,real,23,1,346,Q,2000,02-20-2015,16:13:47
12013,real,24,1,348,O,1000,02-20-2015,16:13:47
12013,real,25,1,310,Q,1000,02-20-2015,16:13:47
12013,real,26,1,339,Q,2000,02-20-2015,16:13:47
12013,real,27,0,669,O,2000,02-20-2015,16:13:47
12013,real,28,1,955,Q,1000,02-20-2015,16:13:47
12013,real,29,1,397,O,2000,02-20-2015,16:13:47
12013,real,30,1,406,Q,2000,02-20-2015,16:13:47
12013,real,31,1,399,Q,1000,02-20-2015,16:13:47
12013,real,32,1,406,O,2000,02-20-2015,16:13:47
12013,real,33,1,319,O,1000,02-20-2015,16:13:47
12013,real,34,1,322,Q,2000,02-20-2015,16:13:47
12013,real,35,1,1422,O,1000,02-20-2015,16:13:47
12013,real,36,1,541,O,2000,02-20-2015,16:13:47
12013,real,37,1,392,Q,1000,02-20-2015,16:13:47
12013,real,38,1,865,O,2000,02-20-2015,16:13:47
12013,real,39,1,335,Q,2000,02-20-2015,16:13:47
12013,real,40,1,682,O,1000,02-20-2015,16:13:47
12013,real,41,1,671,Q,1000,02-20-2015,16:13:47
12013,real,42,1,429,Q,2000,02-20-2015,16:13:47
12013,real,43,1,420,O,2000,02-20-2015,16:13:47
12013,real,44,1,412,O,2000,02-20-2015,16:13:47
12013,real,45,1,547,Q,2000,02-20-2015,16:13:47
12013,real,46,1,350,Q,1000,02-20-2015,16:13:47
12013,real,47,1,264,Q,1000,02-20-2015,16:13:47
12013,real,48,1,422,O,2000,02-20-2015,16:13:47
12014,practice,1,1,1010,Q,2000,02-23-2015,09:51:25
12014,practice,2,1,1211,O,2000,02-23-2015,09:51:25
12014,practice,3,1,906,O,2000,02-23-2015,09:51:25
12014,practice,4,1,767,O,2000,02-23-2015,09:51:25
12014,practice,5,1,673,Q,1000,02-23-2015,09:51:25
12014,practice,6,1,918,Q,2000,02-23-2015,09:51:25
12014,practice,7,1,482,Q,1000,02-23-2015,09:51:25
12014,practice,8,1,1735,Q,1000,02-23-2015,09:51:25
12014,practice,9,1,1258,Q,1000,02-23-2015,09:51:25
12014,practice,10,0,1503,O,1000,02-23-2015,09:51:25
12014,practice,11,1,868,O,1000,02-23-2015,09:51:25
12014,practice,12,1,953,O,2000,02-23-2015,09:51:25
12014,practice,13,1,716,Q,2000,02-23-2015,09:51:25
12014,practice,14,1,710,Q,2000,02-23-2015,09:51:25
12014,practice,15,0,1939,O,1000,02-23-2015,09:51:25
12014,practice,16,1,967,O,1000,02-23-2015,09:51:25
12014,real,1,1,867,O,2000,02-23-2015,09:51:25
12014,real,2,1,576,O,1000,02-23-2015,09:51:25
12014,real,3,1,554,Q,2000,02-23-2015,09:51:25
12014,real,4,1,653,Q,2000,02-23-2015,09:51:25
12014,real,5,1,586,Q,1000,02-23-2015,09:51:25
12014,real,6,1,532,Q,1000,02-23-2015,09:51:25
12014,real,7,0,1678,O,1000,02-23-2015,09:51:25
12014,real,8,1,556,O,1000,02-23-2015,09:51:25
12014,real,9,1,846,O,2000,02-23-2015,09:51:25
12014,real,10,1,1766,Q,2000,02-23-2015,09:51:25
12014,real,11,1,1648,Q,1000,02-23-2015,09:51:25
12014,real,12,1,582,Q,2000,02-23-2015,09:51:25
12014,real,13,1,1055,O,2000,02-23-2015,09:51:25
12014,real,14,1,701,O,1000,02-23-2015,09:51:25
12014,real,15,1,657,Q,1000,02-23-2015,09:51:25
12014,real,16,1,2239,O,2000,02-23-2015,09:51:25
12014,real,17,1,1590,O,1000,02-23-2015,09:51:25
12014,real,18,1,535,Q,1000,02-23-2015,09:51:25
12014,real,19,1,786,Q,1000,02-23-2015,09:51:25
12014,real,20,1,826,Q,2000,02-23-2015,09:51:25
12014,real,21,1,563,Q,1000,02-23-2015,09:51:25
12014,real,22,1,540,O,1000,02-23-2015,09:51:25
12014,real,23,1,743,O,1000,02-23-2015,09:51:25
12014,real,24,1,1425,O,1000,02-23-2015,09:51:25
12014,real,25,0,2329,Q,2000,02-23-2015,09:51:25
12014,real,26,1,900,O,1000,02-23-2015,09:51:25
12014,real,27,1,2449,Q,1000,02-23-2015,09:51:25
12014,real,28,1,3015,Q,2000,02-23-2015,09:51:25
12014,real,29,0,1807,O,1000,02-23-2015,09:51:25
12014,real,30,1,775,O,2000,02-23-2015,09:51:25
12014,real,31,1,762,O,2000,02-23-2015,09:51:25
12014,real,32,1,635,Q,2000,02-23-2015,09:51:25
12014,real,33,1,835,O,2000,02-23-2015,09:51:25
12014,real,34,1,1361,O,1000,02-23-2015,09:51:25
12014,real,35,1,740,Q,2000,02-23-2015,09:51:25
12014,real,36,1,719,Q,2000,02-23-2015,09:51:25
12014,real,37,1,1034,Q,2000,02-23-2015,09:51:25
12014,real,38,0,1642,O,2000,02-23-2015,09:51:25
12014,real,39,0,1128,Q,1000,02-23-2015,09:51:25
12014,real,40,1,844,O,2000,02-23-2015,09:51:25
12014,real,41,1,2067,Q,1000,02-23-2015,09:51:25
12014,real,42,1,497,Q,2000,02-23-2015,09:51:25
12014,real,43,1,646,O,1000,02-23-2015,09:51:25
12014,real,44,1,1045,O,2000,02-23-2015,09:51:25
12014,real,45,1,659,O,2000,02-23-2015,09:51:25
12014,real,46,1,1042,Q,1000,02-23-2015,09:51:25
12014,real,47,1,872,Q,1000,02-23-2015,09:51:25
12014,real,48,1,638,O,2000,02-23-2015,09:51:25
12015,practice,1,1,263,O,1000,02-23-2015,12:50:34
12015,practice,2,1,237,O,2000,02-23-2015,12:50:34
12015,practice,3,1,524,Q,2000,02-23-2015,12:50:34
12015,practice,4,1,231,O,2000,02-23-2015,12:50:34
12015,practice,5,1,239,Q,2000,02-23-2015,12:50:34
12015,practice,6,0,213,O,2000,02-23-2015,12:50:34
12015,practice,7,0,429,Q,1000,02-23-2015,12:50:34
12015,practice,8,0,286,Q,1000,02-23-2015,12:50:34
12015,practice,9,0,226,O,1000,02-23-2015,12:50:34
12015,practice,10,1,274,O,1000,02-23-2015,12:50:34
12015,practice,11,1,232,O,2000,02-23-2015,12:50:34
12015,practice,12,1,519,Q,1000,02-23-2015,12:50:34
12015,practice,13,1,410,Q,2000,02-23-2015,12:50:34
12015,practice,14,1,306,O,1000,02-23-2015,12:50:34
12015,practice,15,0,286,Q,2000,02-23-2015,12:50:34
12015,practice,16,1,412,Q,1000,02-23-2015,12:50:34
12015,real,1,1,369,O,1000,02-23-2015,12:50:34
12015,real,2,0,306,Q,1000,02-23-2015,12:50:34
12015,real,3,1,302,Q,1000,02-23-2015,12:50:34
12015,real,4,0,219,O,1000,02-23-2015,12:50:34
12015,real,5,1,339,Q,2000,02-23-2015,12:50:34
12015,real,6,1,381,O,1000,02-23-2015,12:50:34
12015,real,7,1,550,O,2000,02-23-2015,12:50:34
12015,real,8,1,304,O,2000,02-23-2015,12:50:34
12015,real,9,1,308,Q,1000,02-23-2015,12:50:34
12015,real,10,1,328,O,2000,02-23-2015,12:50:34
12015,real,11,0,732,Q,2000,02-23-2015,12:50:34
12015,real,12,1,424,Q,2000,02-23-2015,12:50:34
12015,real,13,1,399,Q,2000,02-23-2015,12:50:34
12015,real,14,1,407,Q,1000,02-23-2015,12:50:34
12015,real,15,1,343,Q,1000,02-23-2015,12:50:34
12015,real,16,1,354,Q,1000,02-23-2015,12:50:34
12015,real,17,0,284,O,2000,02-23-2015,12:50:34
12015,real,18,1,353,O,2000,02-23-2015,12:50:34
12015,real,19,1,1115,O,2000,02-23-2015,12:50:34
12015,real,20,1,351,O,1000,02-23-2015,12:50:34
12015,real,21,1,389,O,1000,02-23-2015,12:50:34
12015,real,22,1,325,Q,2000,02-23-2015,12:50:34
12015,real,23,1,337,O,1000,02-23-2015,12:50:34
12015,real,24,1,411,O,1000,02-23-2015,12:50:34
12015,real,25,1,276,O,2000,02-23-2015,12:50:34
12015,real,26,1,386,O,1000,02-23-2015,12:50:34
12015,real,27,1,354,O,1000,02-23-2015,12:50:34
12015,real,28,1,372,Q,1000,02-23-2015,12:50:34
12015,real,29,1,477,Q,2000,02-23-2015,12:50:34
12015,real,30,1,363,O,2000,02-23-2015,12:50:34
12015,real,31,1,357,Q,1000,02-23-2015,12:50:34
12015,real,32,1,375,Q,1000,02-23-2015,12:50:34
12015,real,33,1,297,Q,2000,02-23-2015,12:50:34
12015,real,34,1,485,O,1000,02-23-2015,12:50:34
12015,real,35,1,330,Q,1000,02-23-2015,12:50:34
12015,real,36,1,374,Q,1000,02-23-2015,12:50:34
12015,real,37,1,303,O,2000,02-23-2015,12:50:34
12015,real,38,0,740,Q,2000,02-23-2015,12:50:34
12015,real,39,1,390,Q,2000,02-23-2015,12:50:34
12015,real,40,1,384,Q,2000,02-23-2015,12:50:34
12015,real,41,1,400,O,2000,02-23-2015,12:50:34
12015,real,42,0,521,Q,2000,02-23-2015,12:50:34
12015,real,43,1,364,O,2000,02-23-2015,12:50:34
12015,real,44,1,262,O,2000,02-23-2015,12:50:34
12015,real,45,1,612,Q,2000,02-23-2015,12:50:34
12015,real,46,1,348,O,1000,02-23-2015,12:50:34
12015,real,47,1,375,Q,1000,02-23-2015,12:50:34
12015,real,48,1,440,O,1000,02-23-2015,12:50:34
12016,practice,1,1,2239,O,1000,02-23-2015,14:37:44
12016,practice,2,1,678,O,1000,02-23-2015,14:37:44
12016,practice,3,1,621,Q,1000,02-23-2015,14:37:44
12016,practice,4,0,1788,O,2000,02-23-2015,14:37:44
12016,practice,5,1,959,O,2000,02-23-2015,14:37:44
12016,practice,6,1,1842,Q,2000,02-23-2015,14:37:44
12016,practice,7,1,640,Q,2000,02-23-2015,14:37:44
12016,practice,8,1,1303,Q,1000,02-23-2015,14:37:44
12016,practice,9,1,1557,Q,1000,02-23-2015,14:37:44
12016,practice,10,1,975,Q,2000,02-23-2015,14:37:44
12016,practice,11,1,594,O,2000,02-23-2015,14:37:44
12016,practice,12,1,596,O,2000,02-23-2015,14:37:44
12016,practice,13,1,677,Q,2000,02-23-2015,14:37:44
12016,practice,14,1,987,O,1000,02-23-2015,14:37:44
12016,practice,15,1,581,O,1000,02-23-2015,14:37:44
12016,practice,16,1,527,Q,1000,02-23-2015,14:37:44
12016,real,1,0,667,Q,1000,02-23-2015,14:37:44
12016,real,2,0,617,O,2000,02-23-2015,14:37:44
12016,real,3,0,761,Q,2000,02-23-2015,14:37:44
12016,real,4,1,1084,Q,1000,02-23-2015,14:37:44
12016,real,5,1,530,Q,1000,02-23-2015,14:37:44
12016,real,6,1,597,O,2000,02-23-2015,14:37:44
12016,real,7,1,535,O,2000,02-23-2015,14:37:44
12016,real,8,0,747,Q,2000,02-23-2015,14:37:44
12016,real,9,0,654,O,1000,02-23-2015,14:37:44
12016,real,10,1,557,Q,2000,02-23-2015,14:37:44
12016,real,11,1,545,Q,2000,02-23-2015,14:37:44
12016,real,12,1,476,Q,1000,02-23-2015,14:37:44
12016,real,13,1,602,Q,1000,02-23-2015,14:37:44
12016,real,14,1,507,Q,2000,02-23-2015,14:37:44
12016,real,15,1,496,O,2000,02-23-2015,14:37:44
12016,real,16,1,438,Q,2000,02-23-2015,14:37:44
12016,real,17,1,438,Q,1000,02-23-2015,14:37:44
12016,real,18,1,542,O,2000,02-23-2015,14:37:44
12016,real,19,1,490,O,1000,02-23-2015,14:37:44
12016,real,20,1,704,Q,2000,02-23-2015,14:37:44
12016,real,21,1,549,Q,1000,02-23-2015,14:37:44
12016,real,22,1,464,O,1000,02-23-2015,14:37:44
12016,real,23,1,415,O,1000,02-23-2015,14:37:44
12016,real,24,1,391,O,2000,02-23-2015,14:37:44
12016,real,25,1,369,O,2000,02-23-2015,14:37:44
12016,real,26,1,467,O,1000,02-23-2015,14:37:44
12016,real,27,1,376,O,2000,02-23-2015,14:37:44
12016,real,28,1,1140,Q,2000,02-23-2015,14:37:44
12016,real,29,1,536,Q,1000,02-23-2015,14:37:44
12016,real,30,0,699,O,2000,02-23-2015,14:37:44
12016,real,31,1,584,O,2000,02-23-2015,14:37:44
12016,real,32,1,513,Q,1000,02-23-2015,14:37:44
12016,real,33,1,606,O,1000,02-23-2015,14:37:44
12016,real,34,1,447,O,2000,02-23-2015,14:37:44
12016,real,35,1,543,Q,1000,02-23-2015,14:37:44
12016,real,36,1,523,O,1000,02-23-2015,14:37:44
12016,real,37,0,1255,O,1000,02-23-2015,14:37:44
12016,real,38,1,471,O,1000,02-23-2015,14:37:44
12016,real,39,1,653,Q,2000,02-23-2015,14:37:44
12016,real,40,1,867,Q,1000,02-23-2015,14:37:44
12016,real,41,1,435,Q,2000,02-23-2015,14:37:44
12016,real,42,1,370,O,1000,02-23-2015,14:37:44
12016,real,43,1,372,Q,1000,02-23-2015,14:37:44
12016,real,44,1,559,O,2000,02-23-2015,14:37:44
12016,real,45,1,417,Q,2000,02-23-2015,14:37:44
12016,real,46,1,418,O,1000,02-23-2015,14:37:44
12016,real,47,1,346,Q,2000,02-23-2015,14:37:44
12016,real,48,1,365,O,1000,02-23-2015,14:37:44
12018,practice,1,1,568,Q,1000,02-23-2015,16:40:03
12018,practice,2,1,1330,O,1000,02-23-2015,16:40:03
12018,practice,3,1,790,Q,2000,02-23-2015,16:40:03
12018,practice,4,0,752,Q,2000,02-23-2015,16:40:03
12018,practice,5,1,459,O,2000,02-23-2015,16:40:03
12018,practice,6,1,586,Q,1000,02-23-2015,16:40:03
12018,practice,7,1,380,O,2000,02-23-2015,16:40:03
12018,practice,8,1,501,O,2000,02-23-2015,16:40:03
12018,practice,9,0,554,O,2000,02-23-2015,16:40:03
12018,practice,10,1,444,Q,2000,02-23-2015,16:40:03
12018,practice,11,1,443,O,1000,02-23-2015,16:40:03
12018,practice,12,1,539,O,1000,02-23-2015,16:40:03
12018,practice,13,1,605,Q,2000,02-23-2015,16:40:03
12018,practice,14,1,599,O,1000,02-23-2015,16:40:03
12018,practice,15,1,671,Q,1000,02-23-2015,16:40:03
12018,practice,16,0,949,Q,1000,02-23-2015,16:40:03
12018,real,1,0,959,O,2000,02-23-2015,16:40:03
12018,real,2,0,625,Q,2000,02-23-2015,16:40:03
12018,real,3,1,426,Q,1000,02-23-2015,16:40:03
12018,real,4,1,513,O,2000,02-23-2015,16:40:03
12018,real,5,1,414,Q,1000,02-23-2015,16:40:03
12018,real,6,1,408,O,2000,02-23-2015,16:40:03
12018,real,7,1,504,Q,1000,02-23-2015,16:40:03
12018,real,8,1,429,Q,2000,02-23-2015,16:40:03
12018,real,9,0,717,O,1000,02-23-2015,16:40:03
12018,real,10,1,705,O,1000,02-23-2015,16:40:03
12018,real,11,0,421,O,1000,02-23-2015,16:40:03
12018,real,12,0,717,O,2000,02-23-2015,16:40:03
12018,real,13,1,290,O,1000,02-23-2015,16:40:03
12018,real,14,1,344,O,1000,02-23-2015,16:40:03
12018,real,15,1,643,Q,2000,02-23-2015,16:40:03
12018,real,16,1,434,O,2000,02-23-2015,16:40:03
12018,real,17,1,506,O,2000,02-23-2015,16:40:03
12018,real,18,0,687,O,2000,02-23-2015,16:40:03
12018,real,19,0,661,Q,1000,02-23-2015,16:40:03
12018,real,20,0,692,Q,2000,02-23-2015,16:40:03
12018,real,21,1,794,O,2000,02-23-2015,16:40:03
12018,real,22,0,1028,Q,2000,02-23-2015,16:40:03
12018,real,23,1,419,Q,2000,02-23-2015,16:40:03
12018,real,24,1,370,Q,1000,02-23-2015,16:40:03
12018,real,25,0,549,Q,1000,02-23-2015,16:40:03
12018,real,26,0,655,Q,1000,02-23-2015,16:40:03
12018,real,27,1,311,Q,1000,02-23-2015,16:40:03
12018,real,28,1,475,Q,1000,02-23-2015,16:40:03
12018,real,29,1,593,O,2000,02-23-2015,16:40:03
12018,real,30,1,619,O,1000,02-23-2015,16:40:03
12018,real,31,0,435,O,1000,02-23-2015,16:40:03
12018,real,32,0,426,O,2000,02-23-2015,16:40:03
12018,real,33,1,427,Q,1000,02-23-2015,16:40:03
12018,real,34,1,323,Q,2000,02-23-2015,16:40:03
12018,real,35,1,455,O,1000,02-23-2015,16:40:03
12018,real,36,1,406,O,1000,02-23-2015,16:40:03
12018,real,37,0,598,O,1000,02-23-2015,16:40:03
12018,real,38,1,447,O,1000,02-23-2015,16:40:03
12018,real,39,0,1159,Q,2000,02-23-2015,16:40:03
12018,real,40,1,642,Q,2000,02-23-2015,16:40:03
12018,real,41,1,856,O,2000,02-23-2015,16:40:03
12018,real,42,0,559,Q,2000,02-23-2015,16:40:03
12018,real,43,1,362,Q,1000,02-23-2015,16:40:03
12018,real,44,1,301,Q,1000,02-23-2015,16:40:03
12018,real,45,1,441,Q,2000,02-23-2015,16:40:03
12018,real,46,0,625,Q,2000,02-23-2015,16:40:03
12018,real,47,0,497,O,2000,02-23-2015,16:40:03
12018,real,48,1,319,O,1000,02-23-2015,16:40:03
12021,practice,1,1,407,O,2000,02-24-2015,15:42:04
12021,practice,2,1,552,O,1000,02-24-2015,15:42:04
12021,practice,3,1,394,Q,2000,02-24-2015,15:42:04
12021,practice,4,1,402,O,2000,02-24-2015,15:42:04
12021,practice,5,1,451,O,1000,02-24-2015,15:42:04
12021,practice,6,1,570,O,2000,02-24-2015,15:42:04
12021,practice,7,1,483,O,1000,02-24-2015,15:42:04
12021,practice,8,1,480,O,1000,02-24-2015,15:42:04
12021,practice,9,1,470,Q,2000,02-24-2015,15:42:04
12021,practice,10,1,395,O,2000,02-24-2015,15:42:04
12021,practice,11,1,316,Q,1000,02-24-2015,15:42:04
12021,practice,12,1,320,Q,1000,02-24-2015,15:42:04
12021,practice,13,1,404,Q,1000,02-24-2015,15:42:04
12021,practice,14,1,412,Q,2000,02-24-2015,15:42:04
12021,practice,15,1,357,Q,2000,02-24-2015,15:42:04
12021,practice,16,1,375,Q,1000,02-24-2015,15:42:04
12021,real,1,1,412,O,1000,02-24-2015,15:42:04
12021,real,2,1,1820,Q,1000,02-24-2015,15:42:04
12021,real,3,1,451,O,1000,02-24-2015,15:42:04
12021,real,4,1,393,O,2000,02-24-2015,15:42:04
12021,real,5,1,370,Q,2000,02-24-2015,15:42:04
12021,real,6,1,475,Q,2000,02-24-2015,15:42:04
12021,real,7,1,361,Q,1000,02-24-2015,15:42:04
12021,real,8,1,299,Q,1000,02-24-2015,15:42:04
12021,real,9,1,431,Q,1000,02-24-2015,15:42:04
12021,real,10,1,630,Q,2000,02-24-2015,15:42:04
12021,real,11,1,446,O,1000,02-24-2015,15:42:04
12021,real,12,1,365,O,1000,02-24-2015,15:42:04
12021,real,13,1,335,O,1000,02-24-2015,15:42:04
12021,real,14,1,354,Q,1000,02-24-2015,15:42:04
12021,real,15,1,396,Q,2000,02-24-2015,15:42:04
12021,real,16,1,324,Q,2000,02-24-2015,15:42:04
12021,real,17,1,432,O,2000,02-24-2015,15:42:04
12021,real,18,1,359,O,2000,02-24-2015,15:42:04
12021,real,19,0,921,O,1000,02-24-2015,15:42:04
12021,real,20,1,428,Q,2000,02-24-2015,15:42:04
12021,real,21,1,555,Q,2000,02-24-2015,15:42:04
12021,real,22,1,438,O,1000,02-24-2015,15:42:04
12021,real,23,1,397,Q,2000,02-24-2015,15:42:04
12021,real,24,1,397,Q,1000,02-24-2015,15:42:04
12021,real,25,1,390,O,2000,02-24-2015,15:42:04
12021,real,26,1,335,O,2000,02-24-2015,15:42:04
12021,real,27,1,321,O,1000,02-24-2015,15:42:04
12021,real,28,1,389,O,1000,02-24-2015,15:42:04
12021,real,29,1,342,Q,1000,02-24-2015,15:42:04
12021,real,30,1,329,O,1000,02-24-2015,15:42:04
12021,real,31,1,436,Q,2000,02-24-2015,15:42:04
12021,real,32,1,355,Q,1000,02-24-2015,15:42:04
12021,real,33,1,261,Q,1000,02-24-2015,15:42:04
12021,real,34,1,435,Q,2000,02-24-2015,15:42:04
12021,real,35,1,426,O,2000,02-24-2015,15:42:04
12021,real,36,1,394,Q,1000,02-24-2015,15:42:04
12021,real,37,1,386,O,2000,02-24-2015,15:42:04
12021,real,38,1,387,O,1000,02-24-2015,15:42:04
12021,real,39,1,396,Q,2000,02-24-2015,15:42:04
12021,real,40,1,364,Q,1000,02-24-2015,15:42:04
12021,real,41,1,496,O,1000,02-24-2015,15:42:04
12021,real,42,1,366,Q,1000,02-24-2015,15:42:04
12021,real,43,1,342,O,2000,02-24-2015,15:42:04
12021,real,44,1,386,O,2000,02-24-2015,15:42:04
12021,real,45,1,395,O,2000,02-24-2015,15:42:04
12021,real,46,1,547,Q,2000,02-24-2015,15:42:04
12021,real,47,1,391,O,2000,02-24-2015,15:42:04
12021,real,48,1,352,O,2000,02-24-2015,15:42:04
12022,practice,1,1,279,O,1000,02-26-2015,12:41:07
12022,practice,2,1,837,O,2000,02-26-2015,12:41:07
12022,practice,3,1,260,Q,1000,02-26-2015,12:41:07
12022,practice,4,1,523,O,1000,02-26-2015,12:41:07
12022,practice,5,1,261,Q,1000,02-26-2015,12:41:07
12022,practice,6,1,475,Q,1000,02-26-2015,12:41:07
12022,practice,7,1,457,O,1000,02-26-2015,12:41:07
12022,practice,8,0,1310,O,2000,02-26-2015,12:41:07
12022,practice,9,1,467,O,2000,02-26-2015,12:41:07
12022,practice,10,1,480,Q,1000,02-26-2015,12:41:07
12022,practice,11,1,413,O,1000,02-26-2015,12:41:07
12022,practice,12,1,582,Q,2000,02-26-2015,12:41:07
12022,practice,13,0,2135,Q,2000,02-26-2015,12:41:07
12022,practice,14,1,378,Q,2000,02-26-2015,12:41:07
12022,practice,15,0,548,O,2000,02-26-2015,12:41:07
12022,practice,16,1,423,Q,2000,02-26-2015,12:41:07
12022,real,1,1,1608,O,1000,02-26-2015,12:41:07
12022,real,2,1,296,Q,1000,02-26-2015,12:41:07
12022,real,3,1,476,O,1000,02-26-2015,12:41:07
12022,real,4,1,418,Q,2000,02-26-2015,12:41:07
12022,real,5,1,385,Q,1000,02-26-2015,12:41:07
12022,real,6,1,274,Q,1000,02-26-2015,12:41:07
12022,real,7,1,264,Q,1000,02-26-2015,12:41:07
12022,real,8,1,391,O,2000,02-26-2015,12:41:07
12022,real,9,1,439,O,1000,02-26-2015,12:41:07
12022,real,10,1,1342,Q,2000,02-26-2015,12:41:07
12022,real,11,1,337,O,2000,02-26-2015,12:41:07
12022,real,12,1,524,O,2000,02-26-2015,12:41:07
12022,real,13,1,2200,O,1000,02-26-2015,12:41:07
12022,real,14,1,383,Q,1000,02-26-2015,12:41:07
12022,real,15,1,440,Q,2000,02-26-2015,12:41:07
12022,real,16,1,127,O,2000,02-26-2015,12:41:07
12022,real,17,1,379,Q,1000,02-26-2015,12:41:07
12022,real,18,0,1676,Q,1000,02-26-2015,12:41:07
12022,real,19,1,2082,Q,2000,02-26-2015,12:41:07
12022,real,20,1,471,O,2000,02-26-2015,12:41:07
12022,real,21,1,721,Q,2000,02-26-2015,12:41:07
12022,real,22,0,1133,O,2000,02-26-2015,12:41:07
12022,real,23,1,535,O,2000,02-26-2015,12:41:07
12022,real,24,1,554,Q,2000,02-26-2015,12:41:07
12022,real,25,1,533,O,1000,02-26-2015,12:41:07
12022,real,26,1,536,O,2000,02-26-2015,12:41:07
12022,real,27,1,523,Q,2000,02-26-2015,12:41:07
12022,real,28,1,399,O,2000,02-26-2015,12:41:07
12022,real,29,1,432,O,1000,02-26-2015,12:41:07
12022,real,30,0,1054,O,1000,02-26-2015,12:41:07
12022,real,31,1,517,O,1000,02-26-2015,12:41:07
12022,real,32,1,425,Q,2000,02-26-2015,12:41:07
12022,real,33,1,423,Q,1000,02-26-2015,12:41:07
12022,real,34,1,343,O,1000,02-26-2015,12:41:07
12022,real,35,1,522,Q,1000,02-26-2015,12:41:07
12022,real,36,1,797,Q,2000,02-26-2015,12:41:07
12022,real,37,1,319,O,1000,02-26-2015,12:41:07
12022,real,38,1,1059,Q,1000,02-26-2015,12:41:07
12022,real,39,1,352,O,2000,02-26-2015,12:41:07
12022,real,40,1,379,Q,2000,02-26-2015,12:41:07
12022,real,41,1,1766,O,2000,02-26-2015,12:41:07
12022,real,42,1,351,Q,1000,02-26-2015,12:41:07
12022,real,43,1,3105,O,1000,02-26-2015,12:41:07
12022,real,44,1,366,Q,2000,02-26-2015,12:41:07
12022,real,45,1,432,O,1000,02-26-2015,12:41:07
12022,real,46,1,2303,Q,1000,02-26-2015,12:41:07
12022,real,47,1,636,Q,2000,02-26-2015,12:41:07
12022,real,48,1,395,O,2000,02-26-2015,12:41:07
12023,practice,1,1,342,Q,2000,02-26-2015,13:36:46
12023,practice,2,1,360,Q,1000,02-26-2015,13:36:46
12023,practice,3,1,339,O,2000,02-26-2015,13:36:46
12023,practice,4,0,606,O,2000,02-26-2015,13:36:46
12023,practice,5,1,479,O,1000,02-26-2015,13:36:46
12023,practice,6,1,622,Q,2000,02-26-2015,13:36:46
12023,practice,7,1,1037,Q,1000,02-26-2015,13:36:46
12023,practice,8,1,365,O,2000,02-26-2015,13:36:46
12023,practice,9,1,319,Q,2000,02-26-2015,13:36:46
12023,practice,10,1,731,Q,1000,02-26-2015,13:36:46
12023,practice,11,1,463,O,2000,02-26-2015,13:36:46
12023,practice,12,1,558,O,1000,02-26-2015,13:36:46
12023,practice,13,1,440,O,1000,02-26-2015,13:36:46
12023,practice,14,1,343,O,1000,02-26-2015,13:36:46
12023,practice,15,1,348,Q,1000,02-26-2015,13:36:46
12023,practice,16,1,447,Q,2000,02-26-2015,13:36:46
12023,real,1,0,733,O,1000,02-26-2015,13:36:46
12023,real,2,1,583,Q,2000,02-26-2015,13:36:46
12023,real,3,1,362,O,1000,02-26-2015,13:36:46
12023,real,4,1,428,Q,1000,02-26-2015,13:36:46
12023,real,5,1,332,Q,1000,02-26-2015,13:36:46
12023,real,6,0,535,O,1000,02-26-2015,13:36:46
12023,real,7,1,618,Q,2000,02-26-2015,13:36:46
12023,real,8,1,427,Q,2000,02-26-2015,13:36:46
12023,real,9,1,395,Q,2000,02-26-2015,13:36:46
12023,real,10,0,892,O,2000,02-26-2015,13:36:46
12023,real,11,1,291,O,2000,02-26-2015,13:36:46
12023,real,12,1,399,Q,1000,02-26-2015,13:36:46
12023,real,13,1,440,Q,1000,02-26-2015,13:36:46
12023,real,14,1,383,O,1000,02-26-2015,13:36:46
12023,real,15,1,464,Q,1000,02-26-2015,13:36:46
12023,real,16,1,343,Q,1000,02-26-2015,13:36:46
12023,real,17,1,402,O,1000,02-26-2015,13:36:46
12023,real,18,1,355,O,2000,02-26-2015,13:36:46
12023,real,19,1,350,Q,2000,02-26-2015,13:36:46
12023,real,20,1,369,O,2000,02-26-2015,13:36:46
12023,real,21,1,703,O,2000,02-26-2015,13:36:46
12023,real,22,1,468,O,1000,02-26-2015,13:36:46
12023,real,23,1,474,O,2000,02-26-2015,13:36:46
12023,real,24,1,440,O,1000,02-26-2015,13:36:46
12023,real,25,1,617,Q,1000,02-26-2015,13:36:46
12023,real,26,1,568,O,2000,02-26-2015,13:36:46
12023,real,27,0,433,Q,2000,02-26-2015,13:36:46
12023,real,28,1,385,Q,1000,02-26-2015,13:36:46
12023,real,29,1,411,O,1000,02-26-2015,13:36:46
12023,real,30,1,388,Q,2000,02-26-2015,13:36:46
12023,real,31,1,356,Q,1000,02-26-2015,13:36:46
12023,real,32,1,368,O,2000,02-26-2015,13:36:46
12023,real,33,0,586,O,2000,02-26-2015,13:36:46
12023,real,34,1,404,Q,2000,02-26-2015,13:36:46
12023,real,35,1,476,O,1000,02-26-2015,13:36:46
12023,real,36,0,818,Q,2000,02-26-2015,13:36:46
12023,real,37,1,387,O,1000,02-26-2015,13:36:46
12023,real,38,1,380,Q,2000,02-26-2015,13:36:46
12023,real,39,1,343,O,2000,02-26-2015,13:36:46
12023,real,40,0,882,Q,1000,02-26-2015,13:36:46
12023,real,41,0,567,O,1000,02-26-2015,13:36:46
12023,real,42,1,401,Q,1000,02-26-2015,13:36:46
12023,real,43,1,386,O,2000,02-26-2015,13:36:46
12023,real,44,1,283,O,1000,02-26-2015,13:36:46
12023,real,45,0,769,Q,2000,02-26-2015,13:36:46
12023,real,46,1,355,O,2000,02-26-2015,13:36:46
12023,real,47,1,358,Q,1000,02-26-2015,13:36:46
12023,real,48,1,609,Q,2000,02-26-2015,13:36:46
12024,practice,1,1,340,O,1000,02-26-2015,15:36:51
12024,practice,2,1,463,Q,2000,02-26-2015,15:36:51
12024,practice,3,1,508,O,1000,02-26-2015,15:36:51
12024,practice,4,1,529,Q,2000,02-26-2015,15:36:51
12024,practice,5,1,532,O,2000,02-26-2015,15:36:51
12024,practice,6,1,575,O,1000,02-26-2015,15:36:51
12024,practice,7,1,529,Q,2000,02-26-2015,15:36:51
12024,practice,8,1,397,O,1000,02-26-2015,15:36:51
12024,practice,9,1,589,Q,1000,02-26-2015,15:36:51
12024,practice,10,1,582,Q,1000,02-26-2015,15:36:51
12024,practice,11,1,440,O,2000,02-26-2015,15:36:51
12024,practice,12,1,342,Q,1000,02-26-2015,15:36:51
12024,practice,13,1,449,Q,2000,02-26-2015,15:36:51
12024,practice,14,1,384,Q,1000,02-26-2015,15:36:51
12024,practice,15,0,313,O,2000,02-26-2015,15:36:51
12024,practice,16,1,533,O,2000,02-26-2015,15:36:51
12024,real,1,1,386,O,1000,02-26-2015,15:36:51
12024,real,2,1,474,O,2000,02-26-2015,15:36:51
12024,real,3,1,424,Q,1000,02-26-2015,15:36:51
12024,real,4,1,296,O,1000,02-26-2015,15:36:51
12024,real,5,1,534,Q,2000,02-26-2015,15:36:51
12024,real,6,1,432,Q,1000,02-26-2015,15:36:51
12024,real,7,1,328,Q,2000,02-26-2015,15:36:51
12024,real,8,1,483,O,2000,02-26-2015,15:36:51
12024,real,9,1,408,O,2000,02-26-2015,15:36:51
12024,real,10,1,337,O,2000,02-26-2015,15:36:51
12024,real,11,1,388,Q,1000,02-26-2015,15:36:51
12024,real,12,1,324,O,1000,02-26-2015,15:36:51
12024,real,13,1,368,Q,2000,02-26-2015,15:36:51
12024,real,14,1,433,Q,1000,02-26-2015,15:36:51
12024,real,15,1,384,Q,1000,02-26-2015,15:36:51
12024,real,16,1,329,Q,2000,02-26-2015,15:36:51
12024,real,17,1,380,Q,1000,02-26-2015,15:36:51
12024,real,18,1,390,Q,2000,02-26-2015,15:36:51
12024,real,19,1,471,O,1000,02-26-2015,15:36:51
12024,real,20,1,381,O,2000,02-26-2015,15:36:51
12024,real,21,1,341,O,1000,02-26-2015,15:36:51
12024,real,22,1,440,O,1000,02-26-2015,15:36:51
12024,real,23,1,439,O,1000,02-26-2015,15:36:51
12024,real,24,1,397,O,2000,02-26-2015,15:36:51
12024,real,25,1,318,Q,1000,02-26-2015,15:36:51
12024,real,26,1,378,Q,2000,02-26-2015,15:36:51
12024,real,27,1,875,Q,1000,02-26-2015,15:36:51
12024,real,28,1,384,Q,2000,02-26-2015,15:36:51
12024,real,29,1,426,O,2000,02-26-2015,15:36:51
12024,real,30,1,352,Q,2000,02-26-2015,15:36:51
12024,real,31,1,435,O,1000,02-26-2015,15:36:51
12024,real,32,1,378,Q,2000,02-26-2015,15:36:51
12024,real,33,1,379,Q,1000,02-26-2015,15:36:51
12024,real,34,1,388,O,2000,02-26-2015,15:36:51
12024,real,35,1,357,Q,1000,02-26-2015,15:36:51
12024,real,36,1,327,Q,1000,02-26-2015,15:36:51
12024,real,37,1,339,O,2000,02-26-2015,15:36:51
12024,real,38,1,398,O,2000,02-26-2015,15:36:51
12024,real,39,1,327,O,2000,02-26-2015,15:36:51
12024,real,40,1,346,Q,1000,02-26-2015,15:36:51
12024,real,41,1,366,O,1000,02-26-2015,15:36:51
12024,real,42,1,318,O,1000,02-26-2015,15:36:51
12024,real,43,1,458,O,2000,02-26-2015,15:36:51
12024,real,44,1,344,O,1000,02-26-2015,15:36:51
12024,real,45,1,355,Q,2000,02-26-2015,15:36:51
12024,real,46,1,461,Q,2000,02-26-2015,15:36:51
12024,real,47,1,363,O,1000,02-26-2015,15:36:51
12024,real,48,1,326,Q,2000,02-26-2015,15:36:51
12025,practice,1,1,961,Q,1000,02-26-2015,16:19:37
12025,practice,2,1,2882,Q,1000,02-26-2015,16:19:37
12025,practice,3,1,1121,Q,1000,02-26-2015,16:19:37
12025,practice,4,1,1324,O,1000,02-26-2015,16:19:37
12025,practice,5,1,1193,Q,2000,02-26-2015,16:19:37
12025,practice,6,1,1426,O,2000,02-26-2015,16:19:37
12025,practice,7,1,1115,O,2000,02-26-2015,16:19:37
12025,practice,8,1,1095,O,1000,02-26-2015,16:19:37
12025,practice,9,1,1125,O,1000,02-26-2015,16:19:37
12025,practice,10,0,1041,Q,2000,02-26-2015,16:19:37
12025,practice,11,1,1112,Q,2000,02-26-2015,16:19:37
12025,practice,12,1,1070,Q,2000,02-26-2015,16:19:37
12025,practice,13,1,1108,O,2000,02-26-2015,16:19:37
12025,practice,14,1,1017,Q,1000,02-26-2015,16:19:37
12025,practice,15,1,1040,O,1000,02-26-2015,16:19:37
12025,practice,16,0,1457,O,2000,02-26-2015,16:19:37
12025,real,1,1,949,O,1000,02-26-2015,16:19:37
12025,real,2,1,1064,Q,1000,02-26-2015,16:19:37
12025,real,3,1,1127,Q,2000,02-26-2015,16:19:37
12025,real,4,1,1067,O,1000,02-26-2015,16:19:37
12025,real,5,1,1120,O,1000,02-26-2015,16:19:37
12025,real,6,1,1125,O,1000,02-26-2015,16:19:37
12025,real,7,1,969,O,1000,02-26-2015,16:19:37
12025,real,8,1,978,O,1000,02-26-2015,16:19:37
12025,real,9,1,1085,Q,2000,02-26-2015,16:19:37
12025,real,10,1,794,Q,1000,02-26-2015,16:19:37
12025,real,11,1,1147,Q,2000,02-26-2015,16:19:37
12025,real,12,1,1038,Q,1000,02-26-2015,16:19:37
12025,real,13,1,1038,O,2000,02-26-2015,16:19:37
12025,real,14,1,901,O,1000,02-26-2015,16:19:37
12025,real,15,1,914,O,1000,02-26-2015,16:19:37
12025,real,16,0,2470,O,2000,02-26-2015,16:19:37
12025,real,17,1,1005,Q,1000,02-26-2015,16:19:37
12025,real,18,1,1030,O,1000,02-26-2015,16:19:37
12025,real,19,1,1062,Q,1000,02-26-2015,16:19:37
12025,real,20,1,877,O,1000,02-26-2015,16:19:37
12025,real,21,1,1135,Q,1000,02-26-2015,16:19:37
12025,real,22,1,1018,Q,1000,02-26-2015,16:19:37
12025,real,23,1,1018,O,2000,02-26-2015,16:19:37
12025,real,24,1,1051,O,2000,02-26-2015,16:19:37
12025,real,25,1,944,Q,1000,02-26-2015,16:19:37
12025,real,26,1,956,Q,2000,02-26-2015,16:19:37
12025,real,27,1,1062,O,2000,02-26-2015,16:19:37
12025,real,28,1,934,Q,2000,02-26-2015,16:19:37
12025,real,29,1,1089,O,1000,02-26-2015,16:19:37
12025,real,30,1,951,O,2000,02-26-2015,16:19:37
12025,real,31,1,1058,Q,2000,02-26-2015,16:19:37
12025,real,32,1,1009,Q,1000,02-26-2015,16:19:37
12025,real,33,1,929,Q,2000,02-26-2015,16:19:37
12025,real,34,1,885,Q,2000,02-26-2015,16:19:37
12025,real,35,1,883,Q,2000,02-26-2015,16:19:37
12025,real,36,1,968,O,1000,02-26-2015,16:19:37
12025,real,37,1,955,Q,1000,02-26-2015,16:19:37
12025,real,38,1,909,Q,2000,02-26-2015,16:19:37
12025,real,39,1,899,O,2000,02-26-2015,16:19:37
12025,real,40,1,910,O,2000,02-26-2015,16:19:37
12025,real,41,1,1024,Q,1000,02-26-2015,16:19:37
12025,real,42,1,817,O,2000,02-26-2015,16:19:37
12025,real,43,1,816,O,2000,02-26-2015,16:19:37
12025,real,44,1,921,Q,1000,02-26-2015,16:19:37
12025,real,45,1,844,Q,2000,02-26-2015,16:19:37
12025,real,46,1,756,O,2000,02-26-2015,16:19:37
12025,real,47,1,767,Q,2000,02-26-2015,16:19:37
12025,real,48,1,881,O,2000,02-26-2015,16:19:37
12027,practice,1,1,658,Q,1000,02-27-2015,13:03:58
12027,practice,2,0,1488,Q,2000,02-27-2015,13:03:58
12027,practice,3,1,1606,Q,1000,02-27-2015,13:03:58
12027,practice,4,1,727,O,2000,02-27-2015,13:03:58
12027,practice,5,1,850,Q,2000,02-27-2015,13:03:58
12027,practice,6,0,1505,O,1000,02-27-2015,13:03:58
12027,practice,7,0,1223,O,1000,02-27-2015,13:03:58
12027,practice,8,1,447,O,2000,02-27-2015,13:03:58
12027,practice,9,0,1262,O,1000,02-27-2015,13:03:58
12027,practice,10,1,581,Q,2000,02-27-2015,13:03:58
12027,practice,11,0,1847,Q,2000,02-27-2015,13:03:58
12027,practice,12,1,1103,Q,1000,02-27-2015,13:03:58
12027,practice,13,0,1507,O,2000,02-27-2015,13:03:58
12027,practice,14,1,569,Q,1000,02-27-2015,13:03:58
12027,practice,15,1,588,O,2000,02-27-2015,13:03:58
12027,practice,16,0,1101,O,1000,02-27-2015,13:03:58
12027,real,1,1,419,O,1000,02-27-2015,13:03:58
12027,real,2,1,467,Q,2000,02-27-2015,13:03:58
12027,real,3,0,945,O,1000,02-27-2015,13:03:58
12027,real,4,1,493,O,2000,02-27-2015,13:03:58
12027,real,5,1,803,Q,2000,02-27-2015,13:03:58
12027,real,6,1,492,Q,2000,02-27-2015,13:03:58
12027,real,7,1,793,O,1000,02-27-2015,13:03:58
12027,real,8,1,443,O,2000,02-27-2015,13:03:58
12027,real,9,1,441,O,2000,02-27-2015,13:03:58
12027,real,10,1,362,O,1000,02-27-2015,13:03:58
12027,real,11,1,933,Q,2000,02-27-2015,13:03:58
12027,real,12,0,840,O,2000,02-27-2015,13:03:58
12027,real,13,0,2847,O,2000,02-27-2015,13:03:58
12027,real,14,1,888,Q,1000,02-27-2015,13:03:58
12027,real,15,1,781,Q,1000,02-27-2015,13:03:58
12027,real,16,1,423,O,1000,02-27-2015,13:03:58
12027,real,17,0,848,O,2000,02-27-2015,13:03:58
12027,real,18,0,575,Q,2000,02-27-2015,13:03:58
12027,real,19,0,1282,Q,1000,02-27-2015,13:03:58
12027,real,20,1,504,O,2000,02-27-2015,13:03:58
12027,real,21,1,668,Q,1000,02-27-2015,13:03:58
12027,real,22,1,594,Q,2000,02-27-2015,13:03:58
12027,real,23,1,604,O,1000,02-27-2015,13:03:58
12027,real,24,1,533,Q,1000,02-27-2015,13:03:58
12027,real,25,1,784,O,1000,02-27-2015,13:03:58
12027,real,26,1,793,Q,2000,02-27-2015,13:03:58
12027,real,27,1,675,Q,2000,02-27-2015,13:03:58
12027,real,28,1,459,O,1000,02-27-2015,13:03:58
12027,real,29,1,417,O,2000,02-27-2015,13:03:58
12027,real,30,1,505,Q,1000,02-27-2015,13:03:58
12027,real,31,1,374,O,2000,02-27-2015,13:03:58
12027,real,32,1,448,Q,1000,02-27-2015,13:03:58
12027,real,33,1,376,Q,1000,02-27-2015,13:03:58
12027,real,34,1,378,Q,1000,02-27-2015,13:03:58
12027,real,35,1,548,O,2000,02-27-2015,13:03:58
12027,real,36,0,1808,O,1000,02-27-2015,13:03:58
12027,real,37,1,449,O,1000,02-27-2015,13:03:58
12027,real,38,1,424,Q,2000,02-27-2015,13:03:58
12027,real,39,1,1497,Q,2000,02-27-2015,13:03:58
12027,real,40,1,629,Q,2000,02-27-2015,13:03:58
12027,real,41,0,1097,O,1000,02-27-2015,13:03:58
12027,real,42,1,351,O,1000,02-27-2015,13:03:58
12027,real,43,1,442,O,2000,02-27-2015,13:03:58
12027,real,44,1,890,Q,1000,02-27-2015,13:03:58
12027,real,45,1,830,Q,1000,02-27-2015,13:03:58
12027,real,46,1,479,O,2000,02-27-2015,13:03:58
12027,real,47,1,422,Q,2000,02-27-2015,13:03:58
12027,real,48,1,373,Q,1000,02-27-2015,13:03:58
12028,practice,1,1,2477,O,1000,02-27-2015,13:46:47
12028,practice,2,1,1461,Q,2000,02-27-2015,13:46:47
12028,practice,3,1,1092,O,2000,02-27-2015,13:46:47
12028,practice,4,1,1721,O,1000,02-27-2015,13:46:47
12028,practice,5,1,1055,Q,2000,02-27-2015,13:46:47
12028,practice,6,1,750,O,2000,02-27-2015,13:46:47
12028,practice,7,0,521,Q,2000,02-27-2015,13:46:47
12028,practice,8,1,677,Q,1000,02-27-2015,13:46:47
12028,practice,9,0,283,Q,1000,02-27-2015,13:46:47
12028,practice,10,1,720,O,1000,02-27-2015,13:46:47
12028,practice,11,1,406,O,1000,02-27-2015,13:46:47
12028,practice,12,0,903,Q,1000,02-27-2015,13:46:47
12028,practice,13,1,723,Q,1000,02-27-2015,13:46:47
12028,practice,14,1,512,O,2000,02-27-2015,13:46:47
12028,practice,15,1,453,O,2000,02-27-2015,13:46:47
12028,practice,16,0,443,Q,2000,02-27-2015,13:46:47
12028,real,1,1,710,O,1000,02-27-2015,13:46:47
12028,real,2,1,396,Q,1000,02-27-2015,13:46:47
12028,real,3,1,549,Q,2000,02-27-2015,13:46:47
12028,real,4,0,784,O,1000,02-27-2015,13:46:47
12028,real,5,0,563,O,1000,02-27-2015,13:46:47
12028,real,6,1,605,Q,1000,02-27-2015,13:46:47
12028,real,7,1,502,Q,1000,02-27-2015,13:46:47
12028,real,8,1,675,O,1000,02-27-2015,13:46:47
12028,real,9,1,537,O,1000,02-27-2015,13:46:47
12028,real,10,0,516,O,1000,02-27-2015,13:46:47
12028,real,11,1,578,Q,1000,02-27-2015,13:46:47
12028,real,12,0,388,O,2000,02-27-2015,13:46:47
12028,real,13,0,390,O,1000,02-27-2015,13:46:47
12028,real,14,1,352,Q,2000,02-27-2015,13:46:47
12028,real,15,1,403,O,1000,02-27-2015,13:46:47
12028,real,16,1,483,Q,1000,02-27-2015,13:46:47
12028,real,17,1,410,Q,2000,02-27-2015,13:46:47
12028,real,18,0,450,O,2000,02-27-2015,13:46:47
12028,real,19,1,474,Q,2000,02-27-2015,13:46:47
12028,real,20,1,415,Q,2000,02-27-2015,13:46:47
12028,real,21,1,392,Q,1000,02-27-2015,13:46:47
12028,real,22,0,674,O,2000,02-27-2015,13:46:47
12028,real,23,1,536,Q,1000,02-27-2015,13:46:47
12028,real,24,1,397,Q,2000,02-27-2015,13:46:47
12028,real,25,1,695,O,2000,02-27-2015,13:46:47
12028,real,26,1,1029,O,2000,02-27-2015,13:46:47
12028,real,27,1,405,Q,2000,02-27-2015,13:46:47
12028,real,28,1,494,O,2000,02-27-2015,13:46:47
12028,real,29,0,532,O,2000,02-27-2015,13:46:47
12028,real,30,0,648,O,2000,02-27-2015,13:46:47
12028,real,31,0,816,Q,1000,02-27-2015,13:46:47
12028,real,32,1,415,Q,1000,02-27-2015,13:46:47
12028,real,33,0,632,Q,2000,02-27-2015,13:46:47
12028,real,34,1,319,Q,1000,02-27-2015,13:46:47
12028,real,35,1,749,O,2000,02-27-2015,13:46:47
12028,real,36,1,280,Q,2000,02-27-2015,13:46:47
12028,real,37,0,560,Q,1000,02-27-2015,13:46:47
12028,real,38,0,235,O,1000,02-27-2015,13:46:47
12028,real,39,1,451,O,1000,02-27-2015,13:46:47
12028,real,40,0,474,O,2000,02-27-2015,13:46:47
12028,real,41,1,369,Q,2000,02-27-2015,13:46:47
12028,real,42,0,804,Q,1000,02-27-2015,13:46:47
12028,real,43,0,748,O,2000,02-27-2015,13:46:47
12028,real,44,0,631,Q,2000,02-27-2015,13:46:47
12028,real,45,1,584,Q,2000,02-27-2015,13:46:47
12028,real,46,1,673,O,1000,02-27-2015,13:46:47
12028,real,47,0,704,O,2000,02-27-2015,13:46:47
12028,real,48,1,516,O,1000,02-27-2015,13:46:47
12029,practice,1,1,1326,O,1000,02-27-2015,14:56:00
12029,practice,2,0,2618,Q,1000,02-27-2015,14:56:00
12029,practice,3,0,0,Q,1000,02-27-2015,14:56:00
12029,practice,4,1,699,O,1000,02-27-2015,14:56:00
12029,practice,5,1,952,Q,2000,02-27-2015,14:56:00
12029,practice,6,0,1003,O,2000,02-27-2015,14:56:00
12029,practice,7,0,2539,O,2000,02-27-2015,14:56:00
12029,practice,8,1,1494,O,1000,02-27-2015,14:56:00
12029,practice,9,1,2140,Q,1000,02-27-2015,14:56:00
12029,practice,10,0,2832,Q,2000,02-27-2015,14:56:00
12029,practice,11,0,823,O,2000,02-27-2015,14:56:00
12029,practice,12,1,896,O,2000,02-27-2015,14:56:00
12029,practice,13,1,773,Q,2000,02-27-2015,14:56:00
12029,practice,14,0,2487,Q,1000,02-27-2015,14:56:00
12029,practice,15,1,870,O,1000,02-27-2015,14:56:00
12029,practice,16,1,715,Q,2000,02-27-2015,14:56:00
12029,real,1,1,851,Q,2000,02-27-2015,14:56:00
12029,real,2,1,642,Q,1000,02-27-2015,14:56:00
12029,real,3,0,1057,Q,2000,02-27-2015,14:56:00
12029,real,4,1,568,Q,1000,02-27-2015,14:56:00
12029,real,5,1,761,Q,2000,02-27-2015,14:56:00
12029,real,6,1,548,Q,2000,02-27-2015,14:56:00
12029,real,7,0,1103,Q,1000,02-27-2015,14:56:00
12029,real,8,0,965,O,1000,02-27-2015,14:56:00
12029,real,9,1,558,O,1000,02-27-2015,14:56:00
12029,real,10,1,962,O,2000,02-27-2015,14:56:00
12029,real,11,1,3813,O,2000,02-27-2015,14:56:00
12029,real,12,0,1069,O,1000,02-27-2015,14:56:00
12029,real,13,1,3884,O,2000,02-27-2015,14:56:00
12029,real,14,1,624,Q,1000,02-27-2015,14:56:00
12029,real,15,1,545,Q,2000,02-27-2015,14:56:00
12029,real,16,1,701,O,1000,02-27-2015,14:56:00
12029,real,17,1,714,O,2000,02-27-2015,14:56:00
12029,real,18,1,582,Q,2000,02-27-2015,14:56:00
12029,real,19,0,1648,Q,1000,02-27-2015,14:56:00
12029,real,20,1,471,Q,2000,02-27-2015,14:56:00
12029,real,21,0,708,O,1000,02-27-2015,14:56:00
12029,real,22,0,792,O,1000,02-27-2015,14:56:00
12029,real,23,1,522,O,1000,02-27-2015,14:56:00
12029,real,24,0,815,O,2000,02-27-2015,14:56:00
12029,real,25,0,1895,Q,2000,02-27-2015,14:56:00
12029,real,26,1,460,O,1000,02-27-2015,14:56:00
12029,real,27,0,932,Q,2000,02-27-2015,14:56:00
12029,real,28,0,1928,Q,2000,02-27-2015,14:56:00
12029,real,29,0,828,Q,1000,02-27-2015,14:56:00
12029,real,30,1,748,O,1000,02-27-2015,14:56:00
12029,real,31,0,648,O,2000,02-27-2015,14:56:00
12029,real,32,1,462,Q,1000,02-27-2015,14:56:00
12029,real,33,1,614,O,2000,02-27-2015,14:56:00
12029,real,34,1,431,O,1000,02-27-2015,14:56:00
12029,real,35,1,431,Q,1000,02-27-2015,14:56:00
12029,real,36,1,486,O,2000,02-27-2015,14:56:00
12029,real,37,1,460,O,2000,02-27-2015,14:56:00
12029,real,38,1,388,O,2000,02-27-2015,14:56:00
12029,real,39,1,525,O,2000,02-27-2015,14:56:00
12029,real,40,1,408,O,1000,02-27-2015,14:56:00
12029,real,41,1,421,O,2000,02-27-2015,14:56:00
12029,real,42,1,917,Q,1000,02-27-2015,14:56:00
12029,real,43,1,562,Q,1000,02-27-2015,14:56:00
12029,real,44,1,357,Q,2000,02-27-2015,14:56:00
12029,real,45,1,478,Q,2000,02-27-2015,14:56:00
12029,real,46,1,413,Q,1000,02-27-2015,14:56:00
12029,real,47,0,575,Q,1000,02-27-2015,14:56:00
12029,real,48,0,1849,O,1000,02-27-2015,14:56:00
12030,practice,1,0,1873,Q,1000,02-27-2015,14:55:12
12030,practice,2,1,487,O,1000,02-27-2015,14:55:12
12030,practice,3,1,413,O,2000,02-27-2015,14:55:12
12030,practice,4,1,398,O,1000,02-27-2015,14:55:12
12030,practice,5,1,487,Q,2000,02-27-2015,14:55:12
12030,practice,6,1,469,O,1000,02-27-2015,14:55:12
12030,practice,7,1,427,O,2000,02-27-2015,14:55:12
12030,practice,8,1,427,Q,1000,02-27-2015,14:55:12
12030,practice,9,1,371,Q,2000,02-27-2015,14:55:12
12030,practice,10,1,302,Q,2000,02-27-2015,14:55:12
12030,practice,11,1,442,Q,2000,02-27-2015,14:55:12
12030,practice,12,1,435,O,2000,02-27-2015,14:55:12
12030,practice,13,1,498,Q,1000,02-27-2015,14:55:12
12030,practice,14,1,319,Q,1000,02-27-2015,14:55:12
12030,practice,15,1,435,O,1000,02-27-2015,14:55:12
12030,practice,16,0,395,O,2000,02-27-2015,14:55:12
12030,real,1,1,420,Q,2000,02-27-2015,14:55:12
12030,real,2,1,428,O,2000,02-27-2015,14:55:12
12030,real,3,1,325,Q,2000,02-27-2015,14:55:12
12030,real,4,1,402,Q,2000,02-27-2015,14:55:12
12030,real,5,0,210,O,1000,02-27-2015,14:55:12
12030,real,6,1,755,O,2000,02-27-2015,14:55:12
12030,real,7,1,558,O,2000,02-27-2015,14:55:12
12030,real,8,1,409,Q,1000,02-27-2015,14:55:12
12030,real,9,1,601,Q,1000,02-27-2015,14:55:12
12030,real,10,1,387,Q,1000,02-27-2015,14:55:12
12030,real,11,1,933,O,1000,02-27-2015,14:55:12
12030,real,12,1,625,Q,1000,02-27-2015,14:55:12
12030,real,13,1,417,O,2000,02-27-2015,14:55:12
12030,real,14,1,377,Q,2000,02-27-2015,14:55:12
12030,real,15,1,420,Q,2000,02-27-2015,14:55:12
12030,real,16,1,404,O,1000,02-27-2015,14:55:12
12030,real,17,1,413,O,2000,02-27-2015,14:55:12
12030,real,18,1,935,O,2000,02-27-2015,14:55:12
12030,real,19,0,642,O,1000,02-27-2015,14:55:12
12030,real,20,1,409,Q,1000,02-27-2015,14:55:12
12030,real,21,1,429,O,2000,02-27-2015,14:55:12
12030,real,22,1,733,Q,1000,02-27-2015,14:55:12
12030,real,23,1,392,O,2000,02-27-2015,14:55:12
12030,real,24,1,362,Q,1000,02-27-2015,14:55:12
12030,real,25,1,412,Q,1000,02-27-2015,14:55:12
12030,real,26,1,501,Q,2000,02-27-2015,14:55:12
12030,real,27,1,531,O,1000,02-27-2015,14:55:12
12030,real,28,1,383,Q,1000,02-27-2015,14:55:12
12030,real,29,1,393,O,2000,02-27-2015,14:55:12
12030,real,30,1,379,Q,1000,02-27-2015,14:55:12
12030,real,31,1,454,Q,2000,02-27-2015,14:55:12
12030,real,32,0,613,O,1000,02-27-2015,14:55:12
12030,real,33,1,1205,Q,2000,02-27-2015,14:55:12
12030,real,34,1,446,Q,2000,02-27-2015,14:55:12
12030,real,35,1,398,O,1000,02-27-2015,14:55:12
12030,real,36,1,407,O,2000,02-27-2015,14:55:12
12030,real,37,1,353,Q,2000,02-27-2015,14:55:12
12030,real,38,0,819,O,1000,02-27-2015,14:55:12
12030,real,39,1,420,Q,1000,02-27-2015,14:55:12
12030,real,40,1,403,O,1000,02-27-2015,14:55:12
12030,real,41,1,425,Q,1000,02-27-2015,14:55:12
12030,real,42,1,401,Q,2000,02-27-2015,14:55:12
12030,real,43,1,298,O,2000,02-27-2015,14:55:12
12030,real,44,1,288,O,1000,02-27-2015,14:55:12
12030,real,45,1,860,Q,2000,02-27-2015,14:55:12
12030,real,46,1,715,O,1000,02-27-2015,14:55:12
12030,real,47,1,552,O,2000,02-27-2015,14:55:12
12030,real,48,0,755,O,1000,02-27-2015,14:55:12
12033,practice,1,1,443,Q,1000,02-27-2015,16:46:24
12033,practice,2,1,402,O,2000,02-27-2015,16:46:24
12033,practice,3,1,371,Q,1000,02-27-2015,16:46:24
12033,practice,4,1,413,Q,2000,02-27-2015,16:46:24
12033,practice,5,1,462,Q,1000,02-27-2015,16:46:24
12033,practice,6,1,555,O,1000,02-27-2015,16:46:24
12033,practice,7,1,470,O,1000,02-27-2015,16:46:24
12033,practice,8,1,461,Q,2000,02-27-2015,16:46:24
12033,practice,9,1,483,Q,2000,02-27-2015,16:46:24
12033,practice,10,1,457,O,2000,02-27-2015,16:46:24
12033,practice,11,1,407,O,1000,02-27-2015,16:46:24
12033,practice,12,1,361,O,1000,02-27-2015,16:46:24
12033,practice,13,1,403,O,2000,02-27-2015,16:46:24
12033,practice,14,1,404,Q,1000,02-27-2015,16:46:24
12033,practice,15,1,413,O,2000,02-27-2015,16:46:24
12033,practice,16,1,357,Q,2000,02-27-2015,16:46:24
12033,real,1,1,405,O,2000,02-27-2015,16:46:24
12033,real,2,1,415,O,2000,02-27-2015,16:46:24
12033,real,3,1,343,O,2000,02-27-2015,16:46:24
12033,real,4,1,363,Q,1000,02-27-2015,16:46:24
12033,real,5,1,365,Q,1000,02-27-2015,16:46:24
12033,real,6,1,351,Q,1000,02-27-2015,16:46:24
12033,real,7,1,386,O,1000,02-27-2015,16:46:24
12033,real,8,1,365,Q,2000,02-27-2015,16:46:24
12033,real,9,1,304,Q,1000,02-27-2015,16:46:24
12033,real,10,1,268,Q,2000,02-27-2015,16:46:24
12033,real,11,1,490,Q,2000,02-27-2015,16:46:24
12033,real,12,1,472,O,1000,02-27-2015,16:46:24
12033,real,13,1,1118,Q,2000,02-27-2015,16:46:24
12033,real,14,1,610,O,1000,02-27-2015,16:46:24
12033,real,15,1,395,O,1000,02-27-2015,16:46:24
12033,real,16,1,373,Q,2000,02-27-2015,16:46:24
12033,real,17,1,871,O,1000,02-27-2015,16:46:24
12033,real,18,1,334,O,2000,02-27-2015,16:46:24
12033,real,19,1,353,Q,1000,02-27-2015,16:46:24
12033,real,20,1,340,O,1000,02-27-2015,16:46:24
12033,real,21,1,453,O,2000,02-27-2015,16:46:24
12033,real,22,1,363,O,2000,02-27-2015,16:46:24
12033,real,23,1,421,Q,2000,02-27-2015,16:46:24
12033,real,24,1,462,Q,2000,02-27-2015,16:46:24
12033,real,25,1,396,Q,1000,02-27-2015,16:46:24
12033,real,26,1,373,O,2000,02-27-2015,16:46:24
12033,real,27,1,328,Q,1000,02-27-2015,16:46:24
12033,real,28,1,364,Q,1000,02-27-2015,16:46:24
12033,real,29,1,358,Q,2000,02-27-2015,16:46:24
12033,real,30,1,370,Q,2000,02-27-2015,16:46:24
12033,real,31,1,444,O,2000,02-27-2015,16:46:24
12033,real,32,1,363,O,1000,02-27-2015,16:46:24
12033,real,33,1,333,O,1000,02-27-2015,16:46:24
12033,real,34,1,369,O,1000,02-27-2015,16:46:24
12033,real,35,1,763,O,2000,02-27-2015,16:46:24
12033,real,36,1,269,O,1000,02-27-2015,16:46:24
12033,real,37,1,259,O,1000,02-27-2015,16:46:24
12033,real,38,1,482,Q,2000,02-27-2015,16:46:24
12033,real,39,1,296,O,2000,02-27-2015,16:46:24
12033,real,40,1,333,Q,1000,02-27-2015,16:46:24
12033,real,41,1,356,O,2000,02-27-2015,16:46:24
12033,real,42,1,328,Q,1000,02-27-2015,16:46:24
12033,real,43,1,244,Q,2000,02-27-2015,16:46:24
12033,real,44,1,260,Q,2000,02-27-2015,16:46:24
12033,real,45,1,347,O,1000,02-27-2015,16:46:24
12033,real,46,1,310,O,2000,02-27-2015,16:46:24
12033,real,47,1,347,Q,1000,02-27-2015,16:46:24
12033,real,48,1,270,Q,1000,02-27-2015,16:46:24
12034,practice,1,0,0,O,1000,03-02-2015,11:25:34
12034,practice,2,1,1128,O,2000,03-02-2015,11:25:34
12034,practice,3,1,931,O,2000,03-02-2015,11:25:34
12034,practice,4,1,4616,Q,2000,03-02-2015,11:25:34
12034,practice,5,0,818,Q,1000,03-02-2015,11:25:34
12034,practice,6,1,931,O,1000,03-02-2015,11:25:34
12034,practice,7,1,591,O,1000,03-02-2015,11:25:34
12034,practice,8,1,696,Q,1000,03-02-2015,11:25:34
12034,practice,9,0,759,Q,2000,03-02-2015,11:25:34
12034,practice,10,0,722,Q,2000,03-02-2015,11:25:34
12034,practice,11,1,573,O,2000,03-02-2015,11:25:34
12034,practice,12,0,1535,Q,2000,03-02-2015,11:25:34
12034,practice,13,0,770,Q,1000,03-02-2015,11:25:34
12034,practice,14,1,1637,O,1000,03-02-2015,11:25:34
12034,practice,15,0,917,Q,1000,03-02-2015,11:25:34
12034,practice,16,0,2794,O,2000,03-02-2015,11:25:34
12034,real,1,0,1590,Q,1000,03-02-2015,11:25:34
12034,real,2,0,1959,Q,1000,03-02-2015,11:25:34
12034,real,3,0,1842,Q,2000,03-02-2015,11:25:34
12034,real,4,0,1155,Q,2000,03-02-2015,11:25:34
12034,real,5,0,605,Q,2000,03-02-2015,11:25:34
12034,real,6,1,462,O,2000,03-02-2015,11:25:34
12034,real,7,0,1533,O,1000,03-02-2015,11:25:34
12034,real,8,1,793,O,2000,03-02-2015,11:25:34
12034,real,9,1,2834,O,2000,03-02-2015,11:25:34
12034,real,10,1,1994,O,2000,03-02-2015,11:25:34
12034,real,11,1,1844,O,2000,03-02-2015,11:25:34
12034,real,12,1,2051,Q,2000,03-02-2015,11:25:34
12034,real,13,1,1043,Q,1000,03-02-2015,11:25:34
12034,real,14,1,2498,Q,2000,03-02-2015,11:25:34
12034,real,15,1,511,O,1000,03-02-2015,11:25:34
12034,real,16,1,460,O,1000,03-02-2015,11:25:34
12034,real,17,0,779,Q,1000,03-02-2015,11:25:34
12034,real,18,0,525,Q,1000,03-02-2015,11:25:34
12034,real,19,1,1113,Q,1000,03-02-2015,11:25:34
12034,real,20,0,726,Q,2000,03-02-2015,11:25:34
12034,real,21,0,959,Q,1000,03-02-2015,11:25:34
12034,real,22,1,1274,O,1000,03-02-2015,11:25:34
12034,real,23,0,2768,O,2000,03-02-2015,11:25:34
12034,real,24,0,0,Q,1000,03-02-2015,11:25:34
12034,real,25,1,1748,Q,2000,03-02-2015,11:25:34
12034,real,26,1,1368,O,2000,03-02-2015,11:25:34
12034,real,27,0,2073,O,2000,03-02-2015,11:25:34
12034,real,28,0,2520,Q,1000,03-02-2015,11:25:34
12034,real,29,1,1924,O,1000,03-02-2015,11:25:34
12034,real,30,0,0,O,1000,03-02-2015,11:25:34
12034,real,31,1,1410,O,1000,03-02-2015,11:25:34
12034,real,32,1,1243,O,1000,03-02-2015,11:25:34
12034,real,33,1,1043,O,2000,03-02-2015,11:25:34
12034,real,34,0,1362,O,2000,03-02-2015,11:25:34
12034,real,35,0,2166,Q,2000,03-02-2015,11:25:34
12034,real,36,0,2912,O,1000,03-02-2015,11:25:34
12034,real,37,0,2350,O,1000,03-02-2015,11:25:34
12034,real,38,0,784,Q,1000,03-02-2015,11:25:34
12034,real,39,1,1682,Q,1000,03-02-2015,11:25:34
12034,real,40,0,999,Q,2000,03-02-2015,11:25:34
12034,real,41,1,1357,O,2000,03-02-2015,11:25:34
12034,real,42,1,887,O,1000,03-02-2015,11:25:34
12034,real,43,1,797,O,2000,03-02-2015,11:25:34
12034,real,44,1,903,Q,2000,03-02-2015,11:25:34
12034,real,45,1,988,Q,2000,03-02-2015,11:25:34
12034,real,46,0,1126,Q,1000,03-02-2015,11:25:34
12034,real,47,0,2795,O,1000,03-02-2015,11:25:34
12034,real,48,0,643,Q,2000,03-02-2015,11:25:34
12038,practice,1,1,1069,O,1000,03-02-2015,13:38:27
12038,practice,2,1,771,Q,1000,03-02-2015,13:38:27
12038,practice,3,1,701,Q,2000,03-02-2015,13:38:27
12038,practice,4,1,1234,Q,1000,03-02-2015,13:38:27
12038,practice,5,1,274,O,1000,03-02-2015,13:38:27
12038,practice,6,1,417,O,2000,03-02-2015,13:38:27
12038,practice,7,0,1320,O,2000,03-02-2015,13:38:27
12038,practice,8,1,1709,Q,2000,03-02-2015,13:38:27
12038,practice,9,1,569,Q,1000,03-02-2015,13:38:27
12038,practice,10,0,668,Q,2000,03-02-2015,13:38:27
12038,practice,11,0,1050,O,2000,03-02-2015,13:38:27
12038,practice,12,1,904,Q,2000,03-02-2015,13:38:27
12038,practice,13,1,406,O,1000,03-02-2015,13:38:27
12038,practice,14,0,806,O,1000,03-02-2015,13:38:27
12038,practice,15,1,591,O,2000,03-02-2015,13:38:27
12038,practice,16,1,729,Q,1000,03-02-2015,13:38:27
12038,real,1,0,0,O,1000,03-02-2015,13:38:27
12038,real,2,0,0,O,1000,03-02-2015,13:38:27
12038,real,3,0,0,O,1000,03-02-2015,13:38:27
12038,real,4,0,0,O,2000,03-02-2015,13:38:27
12038,real,5,0,0,Q,2000,03-02-2015,13:38:27
12038,real,6,0,0,Q,1000,03-02-2015,13:38:27
12038,real,7,0,0,Q,1000,03-02-2015,13:38:27
12038,real,8,1,1504,Q,1000,03-02-2015,13:38:27
12038,real,9,0,1990,O,1000,03-02-2015,13:38:27
12038,real,10,1,559,Q,2000,03-02-2015,13:38:27
12038,real,11,1,474,Q,1000,03-02-2015,13:38:27
12038,real,12,1,702,Q,2000,03-02-2015,13:38:27
12038,real,13,1,436,O,1000,03-02-2015,13:38:27
12038,real,14,1,491,O,2000,03-02-2015,13:38:27
12038,real,15,1,448,O,2000,03-02-2015,13:38:27
12038,real,16,1,464,O,1000,03-02-2015,13:38:27
12038,real,17,1,479,Q,1000,03-02-2015,13:38:27
12038,real,18,1,429,Q,1000,03-02-2015,13:38:27
12038,real,19,1,550,O,2000,03-02-2015,13:38:27
12038,real,20,1,456,Q,2000,03-02-2015,13:38:27
12038,real,21,0,1220,O,1000,03-02-2015,13:38:27
12038,real,22,1,420,Q,1000,03-02-2015,13:38:27
12038,real,23,1,404,Q,1000,03-02-2015,13:38:27
12038,real,24,1,381,Q,2000,03-02-2015,13:38:27
12038,real,25,1,391,Q,2000,03-02-2015,13:38:27
12038,real,26,1,417,O,2000,03-02-2015,13:38:27
12038,real,27,1,625,O,1000,03-02-2015,13:38:27
12038,real,28,1,433,Q,2000,03-02-2015,13:38:27
12038,real,29,1,696,O,2000,03-02-2015,13:38:27
12038,real,30,0,1270,O,2000,03-02-2015,13:38:27
12038,real,31,1,484,Q,1000,03-02-2015,13:38:27
12038,real,32,1,410,Q,2000,03-02-2015,13:38:27
12038,real,33,1,395,O,1000,03-02-2015,13:38:27
12038,real,34,1,828,O,1000,03-02-2015,13:38:27
12038,real,35,1,468,Q,2000,03-02-2015,13:38:27
12038,real,36,0,682,O,2000,03-02-2015,13:38:27
12038,real,37,1,736,Q,1000,03-02-2015,13:38:27
12038,real,38,1,461,O,2000,03-02-2015,13:38:27
12038,real,39,1,379,O,1000,03-02-2015,13:38:27
12038,real,40,1,493,Q,1000,03-02-2015,13:38:27
12038,real,41,1,910,Q,1000,03-02-2015,13:38:27
12038,real,42,1,452,Q,2000,03-02-2015,13:38:27
12038,real,43,1,442,Q,2000,03-02-2015,13:38:27
12038,real,44,1,355,Q,2000,03-02-2015,13:38:27
12038,real,45,1,621,O,2000,03-02-2015,13:38:27
12038,real,46,1,303,O,2000,03-02-2015,13:38:27
12038,real,47,1,396,O,2000,03-02-2015,13:38:27
12038,real,48,1,397,O,1000,03-02-2015,13:38:27
12039,practice,1,1,667,Q,1000,03-02-2015,13:39:54
12039,practice,2,1,571,Q,2000,03-02-2015,13:39:54
12039,practice,3,0,733,Q,2000,03-02-2015,13:39:54
12039,practice,4,1,544,O,1000,03-02-2015,13:39:54
12039,practice,5,1,348,O,1000,03-02-2015,13:39:54
12039,practice,6,1,439,O,2000,03-02-2015,13:39:54
12039,practice,7,1,392,O,1000,03-02-2015,13:39:54
12039,practice,8,0,562,O,2000,03-02-2015,13:39:54
12039,practice,9,0,421,Q,2000,03-02-2015,13:39:54
12039,practice,10,1,413,O,2000,03-02-2015,13:39:54
12039,practice,11,1,461,Q,1000,03-02-2015,13:39:54
12039,practice,12,1,388,O,2000,03-02-2015,13:39:54
12039,practice,13,1,454,Q,1000,03-02-2015,13:39:54
12039,practice,14,1,1238,O,1000,03-02-2015,13:39:54
12039,practice,15,1,614,Q,1000,03-02-2015,13:39:54
12039,practice,16,1,487,Q,2000,03-02-2015,13:39:54
12039,real,1,1,1299,Q,1000,03-02-2015,13:39:54
12039,real,2,1,432,O,1000,03-02-2015,13:39:54
12039,real,3,1,545,Q,1000,03-02-2015,13:39:54
12039,real,4,1,589,Q,1000,03-02-2015,13:39:54
12039,real,5,0,543,Q,2000,03-02-2015,13:39:54
12039,real,6,1,498,Q,2000,03-02-2015,13:39:54
12039,real,7,0,353,O,1000,03-02-2015,13:39:54
12039,real,8,1,451,O,1000,03-02-2015,13:39:54
12039,real,9,1,330,O,2000,03-02-2015,13:39:54
12039,real,10,1,375,O,2000,03-02-2015,13:39:54
12039,real,11,1,537,Q,1000,03-02-2015,13:39:54
12039,real,12,1,508,O,2000,03-02-2015,13:39:54
12039,real,13,1,394,O,1000,03-02-2015,13:39:54
12039,real,14,1,396,Q,1000,03-02-2015,13:39:54
12039,real,15,1,253,Q,1000,03-02-2015,13:39:54
12039,real,16,1,668,O,2000,03-02-2015,13:39:54
12039,real,17,1,323,O,1000,03-02-2015,13:39:54
12039,real,18,0,775,O,1000,03-02-2015,13:39:54
12039,real,19,1,314,O,1000,03-02-2015,13:39:54
12039,real,20,0,1247,O,1000,03-02-2015,13:39:54
12039,real,21,0,845,O,1000,03-02-2015,13:39:54
12039,real,22,0,565,Q,2000,03-02-2015,13:39:54
12039,real,23,1,440,O,2000,03-02-2015,13:39:54
12039,real,24,1,384,Q,2000,03-02-2015,13:39:54
12039,real,25,1,394,O,2000,03-02-2015,13:39:54
12039,real,26,1,388,Q,2000,03-02-2015,13:39:54
12039,real,27,1,542,Q,2000,03-02-2015,13:39:54
12039,real,28,1,1329,Q,2000,03-02-2015,13:39:54
12039,real,29,1,502,O,2000,03-02-2015,13:39:54
12039,real,30,1,459,Q,2000,03-02-2015,13:39:54
12039,real,31,1,713,O,1000,03-02-2015,13:39:54
12039,real,32,0,767,Q,1000,03-02-2015,13:39:54
12039,real,33,1,729,Q,2000,03-02-2015,13:39:54
12039,real,34,1,518,Q,2000,03-02-2015,13:39:54
12039,real,35,1,481,Q,1000,03-02-2015,13:39:54
12039,real,36,1,368,Q,1000,03-02-2015,13:39:54
12039,real,37,1,371,O,1000,03-02-2015,13:39:54
12039,real,38,1,398,O,2000,03-02-2015,13:39:54
12039,real,39,1,535,Q,2000,03-02-2015,13:39:54
12039,real,40,1,660,Q,1000,03-02-2015,13:39:54
12039,real,41,1,588,Q,2000,03-02-2015,13:39:54
12039,real,42,1,254,O,2000,03-02-2015,13:39:54
12039,real,43,1,428,O,2000,03-02-2015,13:39:54
12039,real,44,1,349,Q,1000,03-02-2015,13:39:54
12039,real,45,1,361,O,2000,03-02-2015,13:39:54
12039,real,46,1,379,Q,1000,03-02-2015,13:39:54
12039,real,47,1,597,O,2000,03-02-2015,13:39:54
12039,real,48,1,400,O,1000,03-02-2015,13:39:54
12040,practice,1,0,2395,Q,1000,03-02-2015,13:37:23
12040,practice,2,1,1180,Q,1000,03-02-2015,13:37:23
12040,practice,3,1,2206,Q,1000,03-02-2015,13:37:23
12040,practice,4,0,1159,Q,1000,03-02-2015,13:37:23
12040,practice,5,1,1073,Q,2000,03-02-2015,13:37:23
12040,practice,6,1,1200,Q,2000,03-02-2015,13:37:23
12040,practice,7,1,1256,O,2000,03-02-2015,13:37:23
12040,practice,8,0,1047,O,1000,03-02-2015,13:37:23
12040,practice,9,1,1039,O,1000,03-02-2015,13:37:23
12040,practice,10,0,1310,Q,2000,03-02-2015,13:37:23
12040,practice,11,0,851,O,2000,03-02-2015,13:37:23
12040,practice,12,1,1010,O,1000,03-02-2015,13:37:23
12040,practice,13,1,955,O,1000,03-02-2015,13:37:23
12040,practice,14,1,924,O,2000,03-02-2015,13:37:23
12040,practice,15,0,978,O,2000,03-02-2015,13:37:23
12040,practice,16,1,1299,Q,2000,03-02-2015,13:37:23
12040,real,1,0,1401,Q,2000,03-02-2015,13:37:23
12040,real,2,1,1098,Q,2000,03-02-2015,13:37:23
12040,real,3,1,1535,O,1000,03-02-2015,13:37:23
12040,real,4,1,1099,Q,2000,03-02-2015,13:37:23
12040,real,5,1,976,Q,1000,03-02-2015,13:37:23
12040,real,6,1,898,Q,2000,03-02-2015,13:37:23
12040,real,7,1,824,Q,2000,03-02-2015,13:37:23
12040,real,8,1,831,Q,2000,03-02-2015,13:37:23
12040,real,9,1,1271,O,2000,03-02-2015,13:37:23
12040,real,10,1,1006,O,2000,03-02-2015,13:37:23
12040,real,11,1,911,O,2000,03-02-2015,13:37:23
12040,real,12,0,1172,Q,2000,03-02-2015,13:37:23
12040,real,13,0,790,O,1000,03-02-2015,13:37:23
12040,real,14,1,1017,Q,1000,03-02-2015,13:37:23
12040,real,15,1,881,Q,1000,03-02-2015,13:37:23
12040,real,16,1,911,Q,1000,03-02-2015,13:37:23
12040,real,17,1,868,Q,2000,03-02-2015,13:37:23
12040,real,18,1,994,O,1000,03-02-2015,13:37:23
12040,real,19,1,1020,Q,1000,03-02-2015,13:37:23
12040,real,20,1,1060,O,1000,03-02-2015,13:37:23
12040,real,21,1,967,O,2000,03-02-2015,13:37:23
12040,real,22,0,961,O,1000,03-02-2015,13:37:23
12040,real,23,1,980,O,2000,03-02-2015,13:37:23
12040,real,24,1,998,Q,2000,03-02-2015,13:37:23
12040,real,25,0,1456,Q,1000,03-02-2015,13:37:23
12040,real,26,1,879,Q,2000,03-02-2015,13:37:23
12040,real,27,1,1021,O,1000,03-02-2015,13:37:23
12040,real,28,1,1085,Q,2000,03-02-2015,13:37:23
12040,real,29,1,1043,Q,1000,03-02-2015,13:37:23
12040,real,30,0,938,O,1000,03-02-2015,13:37:23
12040,real,31,1,1589,Q,1000,03-02-2015,13:37:23
12040,real,32,1,967,O,1000,03-02-2015,13:37:23
12040,real,33,0,1098,O,2000,03-02-2015,13:37:23
12040,real,34,1,1039,O,1000,03-02-2015,13:37:23
12040,real,35,1,1231,Q,2000,03-02-2015,13:37:23
12040,real,36,1,952,O,2000,03-02-2015,13:37:23
12040,real,37,1,1018,O,2000,03-02-2015,13:37:23
12040,real,38,1,1139,Q,1000,03-02-2015,13:37:23
12040,real,39,1,1063,O,1000,03-02-2015,13:37:23
12040,real,40,1,1125,O,2000,03-02-2015,13:37:23
12040,real,41,1,1837,O,2000,03-02-2015,13:37:23
12040,real,42,1,980,O,1000,03-02-2015,13:37:23
12040,real,43,1,999,O,2000,03-02-2015,13:37:23
12040,real,44,1,960,O,1000,03-02-2015,13:37:23
12040,real,45,1,1235,O,2000,03-02-2015,13:37:23
12040,real,46,1,1314,Q,1000,03-02-2015,13:37:23
12040,real,47,1,1040,Q,1000,03-02-2015,13:37:23
12040,real,48,1,999,Q,1000,03-02-2015,13:37:23
12041,practice,1,0,1175,O,1000,03-02-2015,14:49:18
12041,practice,2,1,946,Q,1000,03-02-2015,14:49:18
12041,practice,3,1,1293,Q,1000,03-02-2015,14:49:18
12041,practice,4,0,1370,O,2000,03-02-2015,14:49:18
12041,practice,5,0,1356,O,1000,03-02-2015,14:49:18
12041,practice,6,1,823,Q,2000,03-02-2015,14:49:18
12041,practice,7,1,615,Q,2000,03-02-2015,14:49:18
12041,practice,8,1,720,O,2000,03-02-2015,14:49:18
12041,practice,9,1,397,Q,1000,03-02-2015,14:49:18
12041,practice,10,1,430,O,1000,03-02-2015,14:49:18
12041,practice,11,1,310,O,2000,03-02-2015,14:49:18
12041,practice,12,1,540,Q,2000,03-02-2015,14:49:18
12041,practice,13,1,495,Q,1000,03-02-2015,14:49:18
12041,practice,14,1,397,O,1000,03-02-2015,14:49:18
12041,practice,15,1,302,O,2000,03-02-2015,14:49:18
12041,practice,16,0,779,Q,2000,03-02-2015,14:49:18
12041,real,1,1,365,Q,1000,03-02-2015,14:49:18
12041,real,2,1,375,Q,1000,03-02-2015,14:49:18
12041,real,3,0,585,O,1000,03-02-2015,14:49:18
12041,real,4,1,387,Q,1000,03-02-2015,14:49:18
12041,real,5,1,373,Q,2000,03-02-2015,14:49:18
12041,real,6,0,1567,Q,1000,03-02-2015,14:49:18
12041,real,7,1,376,O,2000,03-02-2015,14:49:18
12041,real,8,1,298,O,2000,03-02-2015,14:49:18
12041,real,9,1,439,Q,1000,03-02-2015,14:49:18
12041,real,10,1,343,O,2000,03-02-2015,14:49:18
12041,real,11,1,347,Q,2000,03-02-2015,14:49:18
12041,real,12,1,406,O,2000,03-02-2015,14:49:18
12041,real,13,1,1247,O,2000,03-02-2015,14:49:18
12041,real,14,1,341,O,2000,03-02-2015,14:49:18
12041,real,15,1,249,O,1000,03-02-2015,14:49:18
12041,real,16,1,360,Q,2000,03-02-2015,14:49:18
12041,real,17,1,330,Q,1000,03-02-2015,14:49:18
12041,real,18,0,287,O,2000,03-02-2015,14:49:18
12041,real,19,1,332,O,1000,03-02-2015,14:49:18
12041,real,20,1,495,O,1000,03-02-2015,14:49:18
12041,real,21,1,1087,O,1000,03-02-2015,14:49:18
12041,real,22,1,325,O,2000,03-02-2015,14:49:18
12041,real,23,1,600,O,1000,03-02-2015,14:49:18
12041,real,24,1,313,O,1000,03-02-2015,14:49:18
12041,real,25,1,389,Q,1000,03-02-2015,14:49:18
12041,real,26,1,350,Q,2000,03-02-2015,14:49:18
12041,real,27,1,505,Q,2000,03-02-2015,14:49:18
12041,real,28,1,318,O,1000,03-02-2015,14:49:18
12041,real,29,1,337,Q,1000,03-02-2015,14:49:18
12041,real,30,1,357,O,1000,03-02-2015,14:49:18
12041,real,31,1,672,O,2000,03-02-2015,14:49:18
12041,real,32,1,414,Q,2000,03-02-2015,14:49:18
12041,real,33,1,351,O,1000,03-02-2015,14:49:18
12041,real,34,1,649,Q,1000,03-02-2015,14:49:18
12041,real,35,1,376,Q,2000,03-02-2015,14:49:18
12041,real,36,0,682,Q,1000,03-02-2015,14:49:18
12041,real,37,1,615,O,1000,03-02-2015,14:49:18
12041,real,38,1,455,Q,2000,03-02-2015,14:49:18
12041,real,39,1,293,Q,2000,03-02-2015,14:49:18
12041,real,40,1,299,O,2000,03-02-2015,14:49:18
12041,real,41,1,287,O,2000,03-02-2015,14:49:18
12041,real,42,1,333,Q,2000,03-02-2015,14:49:18
12041,real,43,1,368,Q,2000,03-02-2015,14:49:18
12041,real,44,1,1178,Q,1000,03-02-2015,14:49:18
12041,real,45,1,300,Q,2000,03-02-2015,14:49:18
12041,real,46,1,1456,O,1000,03-02-2015,14:49:18
12041,real,47,1,326,Q,1000,03-02-2015,14:49:18
12041,real,48,0,282,O,2000,03-02-2015,14:49:18
12043,practice,1,1,1690,O,1000,03-02-2015,14:37:23
12043,practice,2,1,383,O,2000,03-02-2015,14:37:23
12043,practice,3,1,234,O,2000,03-02-2015,14:37:23
12043,practice,4,1,225,Q,1000,03-02-2015,14:37:23
12043,practice,5,1,345,Q,1000,03-02-2015,14:37:23
12043,practice,6,1,221,Q,1000,03-02-2015,14:37:23
12043,practice,7,1,358,O,1000,03-02-2015,14:37:23
12043,practice,8,1,224,Q,2000,03-02-2015,14:37:23
12043,practice,9,1,369,O,2000,03-02-2015,14:37:23
12043,practice,10,1,499,O,1000,03-02-2015,14:37:23
12043,practice,11,1,343,Q,2000,03-02-2015,14:37:23
12043,practice,12,1,459,Q,1000,03-02-2015,14:37:23
12043,practice,13,1,417,O,2000,03-02-2015,14:37:23
12043,practice,14,0,1019,Q,2000,03-02-2015,14:37:23
12043,practice,15,1,354,O,1000,03-02-2015,14:37:23
12043,practice,16,1,334,Q,2000,03-02-2015,14:37:23
12043,real,1,1,785,Q,2000,03-02-2015,14:37:23
12043,real,2,1,266,O,2000,03-02-2015,14:37:23
12043,real,3,1,384,Q,1000,03-02-2015,14:37:23
12043,real,4,1,466,Q,1000,03-02-2015,14:37:23
12043,real,5,1,423,O,2000,03-02-2015,14:37:23
12043,real,6,1,919,Q,1000,03-02-2015,14:37:23
12043,real,7,1,468,O,1000,03-02-2015,14:37:23
12043,real,8,1,587,O,2000,03-02-2015,14:37:23
12043,real,9,1,444,Q,2000,03-02-2015,14:37:23
12043,real,10,1,444,O,1000,03-02-2015,14:37:23
12043,real,11,0,1196,O,1000,03-02-2015,14:37:23
12043,real,12,1,453,Q,2000,03-02-2015,14:37:23
12043,real,13,1,316,O,2000,03-02-2015,14:37:23
12043,real,14,1,472,Q,2000,03-02-2015,14:37:23
12043,real,15,1,382,Q,2000,03-02-2015,14:37:23
12043,real,16,0,928,Q,1000,03-02-2015,14:37:23
12043,real,17,1,413,O,1000,03-02-2015,14:37:23
12043,real,18,1,526,Q,1000,03-02-2015,14:37:23
12043,real,19,1,393,O,1000,03-02-2015,14:37:23
12043,real,20,1,388,O,2000,03-02-2015,14:37:23
12043,real,21,1,420,Q,2000,03-02-2015,14:37:23
12043,real,22,1,932,O,1000,03-02-2015,14:37:23
12043,real,23,1,385,O,1000,03-02-2015,14:37:23
12043,real,24,1,307,O,1000,03-02-2015,14:37:23
12043,real,25,0,831,O,2000,03-02-2015,14:37:23
12043,real,26,1,528,Q,1000,03-02-2015,14:37:23
12043,real,27,1,300,O,1000,03-02-2015,14:37:23
12043,real,28,1,344,O,2000,03-02-2015,14:37:23
12043,real,29,0,1013,O,2000,03-02-2015,14:37:23
12043,real,30,0,974,Q,1000,03-02-2015,14:37:23
12043,real,31,1,384,O,2000,03-02-2015,14:37:23
12043,real,32,1,330,O,2000,03-02-2015,14:37:23
12043,real,33,1,455,Q,2000,03-02-2015,14:37:23
12043,real,34,1,414,O,2000,03-02-2015,14:37:23
12043,real,35,1,655,Q,1000,03-02-2015,14:37:23
12043,real,36,1,462,O,2000,03-02-2015,14:37:23
12043,real,37,1,765,Q,1000,03-02-2015,14:37:23
12043,real,38,1,398,O,1000,03-02-2015,14:37:23
12043,real,39,1,584,Q,2000,03-02-2015,14:37:23
12043,real,40,1,378,Q,2000,03-02-2015,14:37:23
12043,real,41,0,823,Q,2000,03-02-2015,14:37:23
12043,real,42,1,431,Q,2000,03-02-2015,14:37:23
12043,real,43,1,383,O,1000,03-02-2015,14:37:23
12043,real,44,1,505,Q,2000,03-02-2015,14:37:23
12043,real,45,0,534,Q,1000,03-02-2015,14:37:23
12043,real,46,1,562,O,1000,03-02-2015,14:37:23
12043,real,47,1,556,Q,1000,03-02-2015,14:37:23
12043,real,48,1,423,Q,1000,03-02-2015,14:37:23
12047,practice,1,0,1264,O,1000,03-02-2015,16:48:41
12047,practice,2,1,376,O,2000,03-02-2015,16:48:41
12047,practice,3,1,338,Q,2000,03-02-2015,16:48:41
12047,practice,4,1,430,Q,2000,03-02-2015,16:48:41
12047,practice,5,1,397,Q,1000,03-02-2015,16:48:41
12047,practice,6,1,239,O,1000,03-02-2015,16:48:41
12047,practice,7,0,534,Q,1000,03-02-2015,16:48:41
12047,practice,8,1,491,O,2000,03-02-2015,16:48:41
12047,practice,9,1,336,O,2000,03-02-2015,16:48:41
12047,practice,10,1,388,Q,1000,03-02-2015,16:48:41
12047,practice,11,1,382,Q,2000,03-02-2015,16:48:41
12047,practice,12,1,632,O,2000,03-02-2015,16:48:41
12047,practice,13,1,385,O,1000,03-02-2015,16:48:41
12047,practice,14,1,425,Q,2000,03-02-2015,16:48:41
12047,practice,15,1,522,Q,1000,03-02-2015,16:48:41
12047,practice,16,1,486,O,1000,03-02-2015,16:48:41
12047,real,1,1,2009,Q,2000,03-02-2015,16:48:41
12047,real,2,1,355,O,2000,03-02-2015,16:48:41
12047,real,3,1,366,Q,2000,03-02-2015,16:48:41
12047,real,4,1,519,Q,2000,03-02-2015,16:48:41
12047,real,5,1,356,O,1000,03-02-2015,16:48:41
12047,real,6,1,927,Q,2000,03-02-2015,16:48:41
12047,real,7,1,380,O,1000,03-02-2015,16:48:41
12047,real,8,1,358,O,2000,03-02-2015,16:48:41
12047,real,9,1,432,Q,2000,03-02-2015,16:48:41
12047,real,10,1,431,Q,1000,03-02-2015,16:48:41
12047,real,11,1,336,Q,1000,03-02-2015,16:48:41
12047,real,12,1,403,Q,1000,03-02-2015,16:48:41
12047,real,13,1,364,O,2000,03-02-2015,16:48:41
12047,real,14,1,558,O,1000,03-02-2015,16:48:41
12047,real,15,1,393,Q,1000,03-02-2015,16:48:41
12047,real,16,1,396,Q,1000,03-02-2015,16:48:41
12047,real,17,1,333,Q,1000,03-02-2015,16:48:41
12047,real,18,1,377,Q,2000,03-02-2015,16:48:41
12047,real,19,1,348,O,1000,03-02-2015,16:48:41
12047,real,20,1,575,O,1000,03-02-2015,16:48:41
12047,real,21,1,634,O,1000,03-02-2015,16:48:41
12047,real,22,1,394,Q,2000,03-02-2015,16:48:41
12047,real,23,1,268,O,1000,03-02-2015,16:48:41
12047,real,24,1,411,Q,2000,03-02-2015,16:48:41
12047,real,25,1,276,O,2000,03-02-2015,16:48:41
12047,real,26,1,235,O,1000,03-02-2015,16:48:41
12047,real,27,1,322,O,1000,03-02-2015,16:48:41
12047,real,28,1,230,O,1000,03-02-2015,16:48:41
12047,real,29,1,342,Q,2000,03-02-2015,16:48:41
12047,real,30,0,330,Q,1000,03-02-2015,16:48:41
12047,real,31,1,319,Q,1000,03-02-2015,16:48:41
12047,real,32,1,380,Q,2000,03-02-2015,16:48:41
12047,real,33,1,343,O,2000,03-02-2015,16:48:41
12047,real,34,1,337,Q,2000,03-02-2015,16:48:41
12047,real,35,1,509,O,2000,03-02-2015,16:48:41
12047,real,36,1,658,O,2000,03-02-2015,16:48:41
12047,real,37,0,449,Q,2000,03-02-2015,16:48:41
12047,real,38,1,592,Q,1000,03-02-2015,16:48:41
12047,real,39,1,345,O,1000,03-02-2015,16:48:41
12047,real,40,0,589,Q,1000,03-02-2015,16:48:41
12047,real,41,1,327,O,2000,03-02-2015,16:48:41
12047,real,42,1,261,O,2000,03-02-2015,16:48:41
12047,real,43,1,356,O,2000,03-02-2015,16:48:41
12047,real,44,1,303,O,2000,03-02-2015,16:48:41
12047,real,45,1,259,O,1000,03-02-2015,16:48:41
12047,real,46,1,369,O,2000,03-02-2015,16:48:41
12047,real,47,0,420,Q,1000,03-02-2015,16:48:41
12047,real,48,0,644,Q,1000,03-02-2015,16:48:41
12048,practice,1,1,1762,O,2000,03-03-2015,09:34:32
12048,practice,2,1,3093,Q,1000,03-03-2015,09:34:32
12048,practice,3,1,3090,Q,2000,03-03-2015,09:34:32
12048,practice,4,0,1223,Q,1000,03-03-2015,09:34:32
12048,practice,5,0,2854,Q,1000,03-03-2015,09:34:32
12048,practice,6,0,1485,O,1000,03-03-2015,09:34:32
12048,practice,7,0,994,Q,2000,03-03-2015,09:34:32
12048,practice,8,0,2554,O,2000,03-03-2015,09:34:32
12048,practice,9,1,2245,O,1000,03-03-2015,09:34:32
12048,practice,10,0,2667,O,1000,03-03-2015,09:34:32
12048,practice,11,1,3369,O,1000,03-03-2015,09:34:32
12048,practice,12,0,1955,O,2000,03-03-2015,09:34:32
12048,practice,13,0,2437,Q,1000,03-03-2015,09:34:32
12048,practice,14,1,2684,Q,2000,03-03-2015,09:34:32
12048,practice,15,1,2409,Q,2000,03-03-2015,09:34:32
12048,practice,16,1,1465,O,2000,03-03-2015,09:34:32
12048,real,1,1,1453,O,1000,03-03-2015,09:34:32
12048,real,2,1,1235,Q,1000,03-03-2015,09:34:32
12048,real,3,1,985,Q,2000,03-03-2015,09:34:32
12048,real,4,0,866,Q,1000,03-03-2015,09:34:32
12048,real,5,0,1911,O,2000,03-03-2015,09:34:32
12048,real,6,0,1852,Q,2000,03-03-2015,09:34:32
12048,real,7,1,2275,O,2000,03-03-2015,09:34:32
12048,real,8,1,1520,Q,2000,03-03-2015,09:34:32
12048,real,9,1,1380,Q,2000,03-03-2015,09:34:32
12048,real,10,1,1509,Q,1000,03-03-2015,09:34:32
12048,real,11,1,1234,O,1000,03-03-2015,09:34:32
12048,real,12,1,1617,Q,2000,03-03-2015,09:34:32
12048,real,13,1,1160,O,1000,03-03-2015,09:34:32
12048,real,14,1,971,Q,2000,03-03-2015,09:34:32
12048,real,15,1,1692,O,1000,03-03-2015,09:34:32
12048,real,16,0,3698,Q,1000,03-03-2015,09:34:32
12048,real,17,1,2383,O,2000,03-03-2015,09:34:32
12048,real,18,1,1520,O,2000,03-03-2015,09:34:32
12048,real,19,1,1876,Q,2000,03-03-2015,09:34:32
12048,real,20,1,937,Q,1000,03-03-2015,09:34:32
12048,real,21,1,1132,Q,2000,03-03-2015,09:34:32
12048,real,22,0,1430,Q,1000,03-03-2015,09:34:32
12048,real,23,0,1366,O,2000,03-03-2015,09:34:32
12048,real,24,1,816,O,1000,03-03-2015,09:34:32
12048,real,25,0,2407,O,2000,03-03-2015,09:34:32
12048,real,26,1,688,O,2000,03-03-2015,09:34:32
12048,real,27,1,724,O,2000,03-03-2015,09:34:32
12048,real,28,1,1048,Q,1000,03-03-2015,09:34:32
12048,real,29,1,903,Q,2000,03-03-2015,09:34:32
12048,real,30,1,787,Q,2000,03-03-2015,09:34:32
12048,real,31,1,964,Q,1000,03-03-2015,09:34:32
12048,real,32,0,822,O,1000,03-03-2015,09:34:32
12048,real,33,1,1077,O,2000,03-03-2015,09:34:32
12048,real,34,0,1075,O,1000,03-03-2015,09:34:32
12048,real,35,1,952,O,1000,03-03-2015,09:34:32
12048,real,36,1,1042,Q,2000,03-03-2015,09:34:32
12048,real,37,0,1049,O,2000,03-03-2015,09:34:32
12048,real,38,1,943,Q,1000,03-03-2015,09:34:32
12048,real,39,1,850,Q,1000,03-03-2015,09:34:32
12048,real,40,1,720,Q,1000,03-03-2015,09:34:32
12048,real,41,1,955,Q,2000,03-03-2015,09:34:32
12048,real,42,0,846,O,1000,03-03-2015,09:34:32
12048,real,43,1,716,O,2000,03-03-2015,09:34:32
12048,real,44,1,632,O,1000,03-03-2015,09:34:32
12048,real,45,1,528,O,2000,03-03-2015,09:34:32
12048,real,46,1,482,O,1000,03-03-2015,09:34:32
12048,real,47,0,664,Q,1000,03-03-2015,09:34:32
12048,real,48,1,1223,O,1000,03-03-2015,09:34:32
12049,practice,1,1,433,Q,1000,03-03-2015,09:40:02
12049,practice,2,1,433,Q,1000,03-03-2015,09:40:02
12049,practice,3,1,417,O,1000,03-03-2015,09:40:02
12049,practice,4,1,378,Q,2000,03-03-2015,09:40:02
12049,practice,5,1,429,O,1000,03-03-2015,09:40:02
12049,practice,6,1,365,Q,1000,03-03-2015,09:40:02
12049,practice,7,1,343,O,2000,03-03-2015,09:40:02
12049,practice,8,1,354,O,2000,03-03-2015,09:40:02
12049,practice,9,1,486,O,1000,03-03-2015,09:40:02
12049,practice,10,0,668,Q,2000,03-03-2015,09:40:02
12049,practice,11,1,443,O,2000,03-03-2015,09:40:02
12049,practice,12,1,370,Q,2000,03-03-2015,09:40:02
12049,practice,13,1,357,O,1000,03-03-2015,09:40:02
12049,practice,14,1,327,Q,1000,03-03-2015,09:40:02
12049,practice,15,1,356,O,2000,03-03-2015,09:40:02
12049,practice,16,1,607,Q,2000,03-03-2015,09:40:02
12049,real,1,1,448,Q,1000,03-03-2015,09:40:02
12049,real,2,1,344,O,2000,03-03-2015,09:40:02
12049,real,3,1,236,O,1000,03-03-2015,09:40:02
12049,real,4,1,259,O,1000,03-03-2015,09:40:02
12049,real,5,1,338,Q,2000,03-03-2015,09:40:02
12049,real,6,1,301,O,2000,03-03-2015,09:40:02
12049,real,7,1,434,O,1000,03-03-2015,09:40:02
12049,real,8,1,395,Q,2000,03-03-2015,09:40:02
12049,real,9,1,205,O,1000,03-03-2015,09:40:02
12049,real,10,1,486,Q,1000,03-03-2015,09:40:02
12049,real,11,0,539,Q,2000,03-03-2015,09:40:02
12049,real,12,1,423,Q,1000,03-03-2015,09:40:02
12049,real,13,1,503,Q,1000,03-03-2015,09:40:02
12049,real,14,1,300,O,2000,03-03-2015,09:40:02
12049,real,15,1,249,O,2000,03-03-2015,09:40:02
12049,real,16,1,376,O,2000,03-03-2015,09:40:02
12049,real,17,1,410,Q,1000,03-03-2015,09:40:02
12049,real,18,1,444,Q,1000,03-03-2015,09:40:02
12049,real,19,1,394,O,1000,03-03-2015,09:40:02
12049,real,20,1,597,O,2000,03-03-2015,09:40:02
12049,real,21,1,352,Q,2000,03-03-2015,09:40:02
12049,real,22,1,268,O,2000,03-03-2015,09:40:02
12049,real,23,1,314,O,2000,03-03-2015,09:40:02
12049,real,24,1,415,O,1000,03-03-2015,09:40:02
12049,real,25,1,392,O,2000,03-03-2015,09:40:02
12049,real,26,1,338,Q,2000,03-03-2015,09:40:02
12049,real,27,1,510,O,2000,03-03-2015,09:40:02
12049,real,28,1,339,Q,2000,03-03-2015,09:40:02
12049,real,29,1,407,Q,1000,03-03-2015,09:40:02
12049,real,30,1,408,O,1000,03-03-2015,09:40:02
12049,real,31,1,457,Q,1000,03-03-2015,09:40:02
12049,real,32,1,408,Q,1000,03-03-2015,09:40:02
12049,real,33,1,353,Q,2000,03-03-2015,09:40:02
12049,real,34,1,701,O,2000,03-03-2015,09:40:02
12049,real,35,0,689,O,1000,03-03-2015,09:40:02
12049,real,36,1,392,O,1000,03-03-2015,09:40:02
12049,real,37,1,394,Q,1000,03-03-2015,09:40:02
12049,real,38,1,404,Q,2000,03-03-2015,09:40:02
12049,real,39,1,781,Q,2000,03-03-2015,09:40:02
12049,real,40,1,559,Q,1000,03-03-2015,09:40:02
12049,real,41,1,430,Q,2000,03-03-2015,09:40:02
12049,real,42,1,391,O,2000,03-03-2015,09:40:02
12049,real,43,1,425,O,1000,03-03-2015,09:40:02
12049,real,44,1,305,Q,2000,03-03-2015,09:40:02
12049,real,45,1,429,Q,2000,03-03-2015,09:40:02
12049,real,46,1,414,Q,1000,03-03-2015,09:40:02
12049,real,47,1,431,O,1000,03-03-2015,09:40:02
12049,real,48,1,415,O,1000,03-03-2015,09:40:02
12050,practice,1,1,367,Q,2000,03-03-2015,11:26:04
12050,practice,2,0,1681,Q,1000,03-03-2015,11:26:04
12050,practice,3,0,1216,O,1000,03-03-2015,11:26:04
12050,practice,4,1,1600,O,1000,03-03-2015,11:26:04
12050,practice,5,0,954,Q,2000,03-03-2015,11:26:04
12050,practice,6,1,804,Q,1000,03-03-2015,11:26:04
12050,practice,7,0,852,O,1000,03-03-2015,11:26:04
12050,practice,8,0,803,Q,1000,03-03-2015,11:26:04
12050,practice,9,0,605,O,2000,03-03-2015,11:26:04
12050,practice,10,0,126,Q,2000,03-03-2015,11:26:04
12050,practice,11,0,634,O,1000,03-03-2015,11:26:04
12050,practice,12,1,586,Q,2000,03-03-2015,11:26:04
12050,practice,13,1,644,Q,1000,03-03-2015,11:26:04
12050,practice,14,0,1010,O,2000,03-03-2015,11:26:04
12050,practice,15,1,771,O,2000,03-03-2015,11:26:04
12050,practice,16,1,573,O,2000,03-03-2015,11:26:04
12050,real,1,0,1228,Q,2000,03-03-2015,11:26:04
12050,real,2,1,541,Q,1000,03-03-2015,11:26:04
12050,real,3,1,473,Q,1000,03-03-2015,11:26:04
12050,real,4,1,639,Q,2000,03-03-2015,11:26:04
12050,real,5,0,621,O,2000,03-03-2015,11:26:04
12050,real,6,1,422,Q,1000,03-03-2015,11:26:04
12050,real,7,0,518,O,1000,03-03-2015,11:26:04
12050,real,8,1,594,Q,1000,03-03-2015,11:26:04
12050,real,9,1,532,O,2000,03-03-2015,11:26:04
12050,real,10,1,816,Q,1000,03-03-2015,11:26:04
12050,real,11,0,777,O,2000,03-03-2015,11:26:04
12050,real,12,0,1611,O,1000,03-03-2015,11:26:04
12050,real,13,0,2084,O,2000,03-03-2015,11:26:04
12050,real,14,1,946,Q,1000,03-03-2015,11:26:04
12050,real,15,1,1102,Q,1000,03-03-2015,11:26:04
12050,real,16,0,2019,Q,1000,03-03-2015,11:26:04
12050,real,17,1,1347,O,1000,03-03-2015,11:26:04
12050,real,18,1,1543,Q,2000,03-03-2015,11:26:04
12050,real,19,0,1410,Q,2000,03-03-2015,11:26:04
12050,real,20,0,802,O,2000,03-03-2015,11:26:04
12050,real,21,1,1224,Q,2000,03-03-2015,11:26:04
12050,real,22,0,1368,O,1000,03-03-2015,11:26:04
12050,real,23,0,0,Q,1000,03-03-2015,11:26:04
12050,real,24,1,4028,O,1000,03-03-2015,11:26:04
12050,real,25,0,309,O,2000,03-03-2015,11:26:04
12050,real,26,1,738,O,2000,03-03-2015,11:26:04
12050,real,27,0,813,Q,2000,03-03-2015,11:26:04
12050,real,28,0,0,Q,1000,03-03-2015,11:26:04
12050,real,29,0,1048,O,1000,03-03-2015,11:26:04
12050,real,30,0,0,O,2000,03-03-2015,11:26:04
12050,real,31,0,2840,Q,2000,03-03-2015,11:26:04
12050,real,32,0,184,O,1000,03-03-2015,11:26:04
12050,real,33,1,601,Q,2000,03-03-2015,11:26:04
12050,real,34,0,0,O,1000,03-03-2015,11:26:04
12050,real,35,0,907,O,1000,03-03-2015,11:26:04
12050,real,36,1,489,O,1000,03-03-2015,11:26:04
12050,real,37,1,671,Q,2000,03-03-2015,11:26:04
12050,real,38,1,557,Q,2000,03-03-2015,11:26:04
12050,real,39,1,3256,O,1000,03-03-2015,11:26:04
12050,real,40,0,2237,O,2000,03-03-2015,11:26:04
12050,real,41,0,99,Q,2000,03-03-2015,11:26:04
12050,real,42,1,2416,Q,1000,03-03-2015,11:26:04
12050,real,43,0,713,O,2000,03-03-2015,11:26:04
12050,real,44,1,333,O,1000,03-03-2015,11:26:04
12050,real,45,1,409,O,2000,03-03-2015,11:26:04
12050,real,46,0,417,O,2000,03-03-2015,11:26:04
12050,real,47,0,2442,Q,2000,03-03-2015,11:26:04
12050,real,48,0,586,Q,1000,03-03-2015,11:26:04
12051,practice,1,0,4231,O,1000,03-03-2015,11:28:59
12051,practice,2,1,1815,O,2000,03-03-2015,11:28:59
12051,practice,3,1,1721,Q,2000,03-03-2015,11:28:59
12051,practice,4,0,1372,O,2000,03-03-2015,11:28:59
12051,practice,5,1,1079,O,1000,03-03-2015,11:28:59
12051,practice,6,1,1070,Q,1000,03-03-2015,11:28:59
12051,practice,7,1,972,O,2000,03-03-2015,11:28:59
12051,practice,8,1,992,Q,2000,03-03-2015,11:28:59
12051,practice,9,1,985,Q,1000,03-03-2015,11:28:59
12051,practice,10,0,1339,O,2000,03-03-2015,11:28:59
12051,practice,11,1,1077,O,1000,03-03-2015,11:28:59
12051,practice,12,0,1468,Q,1000,03-03-2015,11:28:59
12051,practice,13,1,955,Q,2000,03-03-2015,11:28:59
12051,practice,14,1,1053,Q,2000,03-03-2015,11:28:59
12051,practice,15,1,948,Q,1000,03-03-2015,11:28:59
12051,practice,16,1,975,O,1000,03-03-2015,11:28:59
12051,real,1,0,1622,Q,2000,03-03-2015,11:28:59
12051,real,2,1,990,O,2000,03-03-2015,11:28:59
12051,real,3,1,1384,Q,1000,03-03-2015,11:28:59
12051,real,4,1,1088,Q,1000,03-03-2015,11:28:59
12051,real,5,0,1231,O,2000,03-03-2015,11:28:59
12051,real,6,1,1120,O,1000,03-03-2015,11:28:59
12051,real,7,1,987,Q,2000,03-03-2015,11:28:59
12051,real,8,0,1189,O,1000,03-03-2015,11:28:59
12051,real,9,1,1054,Q,2000,03-03-2015,11:28:59
12051,real,10,0,1245,O,2000,03-03-2015,11:28:59
12051,real,11,1,1149,Q,1000,03-03-2015,11:28:59
12051,real,12,1,1048,Q,2000,03-03-2015,11:28:59
12051,real,13,1,935,O,2000,03-03-2015,11:28:59
12051,real,14,1,1051,Q,2000,03-03-2015,11:28:59
12051,real,15,1,1785,O,2000,03-03-2015,11:28:59
12051,real,16,1,1004,Q,2000,03-03-2015,11:28:59
12051,real,17,1,996,Q,1000,03-03-2015,11:28:59
12051,real,18,1,941,Q,1000,03-03-2015,11:28:59
12051,real,19,1,1177,O,1000,03-03-2015,11:28:59
12051,real,20,1,1011,Q,2000,03-03-2015,11:28:59
12051,real,21,1,905,O,2000,03-03-2015,11:28:59
12051,real,22,1,973,Q,2000,03-03-2015,11:28:59
12051,real,23,1,936,Q,1000,03-03-2015,11:28:59
12051,real,24,1,891,O,2000,03-03-2015,11:28:59
12051,real,25,1,953,Q,1000,03-03-2015,11:28:59
12051,real,26,1,963,O,1000,03-03-2015,11:28:59
12051,real,27,1,974,Q,1000,03-03-2015,11:28:59
12051,real,28,1,825,O,1000,03-03-2015,11:28:59
12051,real,29,1,1520,O,2000,03-03-2015,11:28:59
12051,real,30,1,1396,O,1000,03-03-2015,11:28:59
12051,real,31,1,1333,O,2000,03-03-2015,11:28:59
12051,real,32,1,1048,Q,2000,03-03-2015,11:28:59
12051,real,33,1,911,O,1000,03-03-2015,11:28:59
12051,real,34,0,1628,O,1000,03-03-2015,11:28:59
12051,real,35,1,925,O,1000,03-03-2015,11:28:59
12051,real,36,1,824,O,1000,03-03-2015,11:28:59
12051,real,37,1,1121,Q,2000,03-03-2015,11:28:59
12051,real,38,0,1877,Q,1000,03-03-2015,11:28:59
12051,real,39,1,867,Q,2000,03-03-2015,11:28:59
12051,real,40,1,906,O,2000,03-03-2015,11:28:59
12051,real,41,1,902,Q,1000,03-03-2015,11:28:59
12051,real,42,1,995,O,1000,03-03-2015,11:28:59
12051,real,43,1,957,O,1000,03-03-2015,11:28:59
12051,real,44,1,1087,Q,2000,03-03-2015,11:28:59
12051,real,45,1,1005,O,2000,03-03-2015,11:28:59
12051,real,46,1,1197,O,2000,03-03-2015,11:28:59
12051,real,47,1,1087,Q,1000,03-03-2015,11:28:59
12051,real,48,1,1092,Q,1000,03-03-2015,11:28:59
12052,practice,1,1,3085,O,2000,03-03-2015,12:14:33
12052,practice,2,1,1635,Q,1000,03-03-2015,12:14:33
12052,practice,3,1,1475,Q,1000,03-03-2015,12:14:33
12052,practice,4,1,1650,Q,2000,03-03-2015,12:14:33
12052,practice,5,0,3081,Q,2000,03-03-2015,12:14:33
12052,practice,6,1,2335,O,1000,03-03-2015,12:14:33
12052,practice,7,0,2587,O,2000,03-03-2015,12:14:33
12052,practice,8,1,1292,Q,2000,03-03-2015,12:14:33
12052,practice,9,0,4290,O,2000,03-03-2015,12:14:33
12052,practice,10,1,1288,O,1000,03-03-2015,12:14:33
12052,practice,11,1,981,Q,1000,03-03-2015,12:14:33
12052,practice,12,0,3727,Q,1000,03-03-2015,12:14:33
12052,practice,13,1,1236,Q,2000,03-03-2015,12:14:33
12052,practice,14,1,1108,O,1000,03-03-2015,12:14:33
12052,practice,15,1,856,O,1000,03-03-2015,12:14:33
12052,practice,16,1,2655,O,2000,03-03-2015,12:14:33
12052,real,1,1,894,O,2000,03-03-2015,12:14:33
12052,real,2,0,1475,Q,2000,03-03-2015,12:14:33
12052,real,3,1,1098,O,1000,03-03-2015,12:14:33
12052,real,4,1,950,O,2000,03-03-2015,12:14:33
12052,real,5,1,906,O,2000,03-03-2015,12:14:33
12052,real,6,1,974,O,2000,03-03-2015,12:14:33
12052,real,7,0,1104,Q,2000,03-03-2015,12:14:33
12052,real,8,1,934,O,1000,03-03-2015,12:14:33
12052,real,9,1,1049,Q,2000,03-03-2015,12:14:33
12052,real,10,1,1039,Q,1000,03-03-2015,12:14:33
12052,real,11,1,968,Q,1000,03-03-2015,12:14:33
12052,real,12,1,970,Q,2000,03-03-2015,12:14:33
12052,real,13,1,1109,O,1000,03-03-2015,12:14:33
12052,real,14,1,1249,O,2000,03-03-2015,12:14:33
12052,real,15,1,928,Q,1000,03-03-2015,12:14:33
12052,real,16,1,1005,O,1000,03-03-2015,12:14:33
12052,real,17,1,1029,Q,1000,03-03-2015,12:14:33
12052,real,18,1,910,Q,1000,03-03-2015,12:14:33
12052,real,19,1,931,Q,2000,03-03-2015,12:14:33
12052,real,20,1,1095,O,2000,03-03-2015,12:14:33
12052,real,21,1,1356,Q,2000,03-03-2015,12:14:33
12052,real,22,1,943,Q,2000,03-03-2015,12:14:33
