Subject,Trial,Answer,Response,Accuracy,RT,TimeLeft,TotalScore,SessionDate,SessionTime
12000,1,A,A,1,16185,420000,20,03-04-2015,12:13:21
12000,2,E,E,1,18176,403205,20,03-04-2015,12:13:21
12000,3,D,D,1,13600,384494,20,03-04-2015,12:13:21
12000,4,B,B,1,8263,370365,20,03-04-2015,12:13:21
12000,5,D,D,1,2529,361567,20,03-04-2015,12:13:21
12000,6,D,D,1,23102,358519,20,03-04-2015,12:13:21
12000,7,C,C,1,37537,334893,20,03-04-2015,12:13:21
12000,8,C,C,1,29288,296821,20,03-04-2015,12:13:21
12000,9,B,B,1,14383,266997,20,03-04-2015,12:13:21
12000,10,D,D,1,26837,252085,20,03-04-2015,12:13:21
12000,11,C,D,0,7382,224726,20,03-04-2015,12:13:21
12000,12,B,B,1,14675,216813,20,03-04-2015,12:13:21
12000,13,B,B,1,15046,201618,20,03-04-2015,12:13:21
12000,14,B,B,1,7171,186039,20,03-04-2015,12:13:21
12000,15,D,D,1,34703,178342,20,03-04-2015,12:13:21
12000,16,E,E,1,15798,143103,20,03-04-2015,12:13:21
12000,17,E,E,1,41939,126774,20,03-04-2015,12:13:21
12000,18,E,E,1,17500,84305,20,03-04-2015,12:13:21
12000,19,D,D,1,3320,66277,20,03-04-2015,12:13:21
12000,20,E,E,1,29181,62428,20,03-04-2015,12:13:21
12000,21,A,A,1,11009,32721,20,03-04-2015,12:13:21
12002,1,A,A,1,6418,420000,18,02-27-2015,15:02:04
12002,2,E,E,1,10983,412969,18,02-27-2015,15:02:04
12002,3,D,D,1,15044,401456,18,02-27-2015,15:02:04
12002,4,B,B,1,8681,385877,18,02-27-2015,15:02:04
12002,5,D,D,1,8843,376662,18,02-27-2015,15:02:04
12002,6,D,D,1,14286,367299,18,02-27-2015,15:02:04
12002,7,C,C,1,38870,352487,18,02-27-2015,15:02:04
12002,8,C,C,1,16952,313082,18,02-27-2015,15:02:04
12002,9,B,B,1,10746,295604,18,02-27-2015,15:02:04
12002,10,D,D,1,21633,284324,18,02-27-2015,15:02:04
12002,11,C,C,1,38670,262164,18,02-27-2015,15:02:04
12002,12,B,B,1,23624,222959,18,02-27-2015,15:02:04
12002,13,B,B,1,19807,198799,18,02-27-2015,15:02:04
12002,14,B,B,1,26486,178472,18,02-27-2015,15:02:04
12002,15,D,D,1,25948,151463,18,02-27-2015,15:02:04
12002,16,E,E,1,31439,124987,18,02-27-2015,15:02:04
12002,17,E,E,1,11592,93014,18,02-27-2015,15:02:04
12002,18,E,E,1,33861,80900,18,02-27-2015,15:02:04
12006,1,A,A,1,8588,420000,19,02-27-2015,09:28:37
12006,2,E,E,1,13138,410802,19,02-27-2015,09:28:37
12006,3,D,D,1,12162,397139,19,02-27-2015,09:28:37
12006,4,B,B,1,7602,384442,19,02-27-2015,09:28:37
12006,5,D,D,1,8598,376311,19,02-27-2015,09:28:37
12006,6,D,D,1,18146,367180,19,02-27-2015,09:28:37
12006,7,C,C,1,17324,348501,19,02-27-2015,09:28:37
12006,8,C,C,1,29598,330656,19,02-27-2015,09:28:37
12006,9,B,B,1,21599,300530,19,02-27-2015,09:28:37
12006,10,D,D,1,26111,278402,19,02-27-2015,09:28:37
12006,11,C,C,1,24548,251759,19,02-27-2015,09:28:37
12006,12,B,B,1,22926,226682,19,02-27-2015,09:28:37
12006,13,B,B,1,29649,203221,19,02-27-2015,09:28:37
12006,14,B,B,1,5913,173045,19,02-27-2015,09:28:37
12006,15,D,D,1,38441,166597,19,02-27-2015,09:28:37
12006,16,E,E,1,16611,127623,19,02-27-2015,09:28:37
12006,17,E,E,1,27385,110477,19,02-27-2015,09:28:37
12006,18,E,E,1,32083,82568,19,02-27-2015,09:28:37
12006,19,D,D,1,14034,49959,19,02-27-2015,09:28:37
12008,1,A,A,1,4925,420000,24,04-03-2015,12:14:03
12008,2,E,E,1,4644,414468,24,04-03-2015,12:14:03
12008,3,D,D,1,23022,409303,24,04-03-2015,12:14:03
12008,4,B,B,1,21261,385760,24,04-03-2015,12:14:03
12008,5,D,D,1,5948,363966,24,04-03-2015,12:14:03
12008,6,D,D,1,7633,357485,24,04-03-2015,12:14:03
12008,7,C,C,1,7021,349321,24,04-03-2015,12:14:03
12008,8,C,C,1,7089,341773,24,04-03-2015,12:14:03
12008,9,B,B,1,4346,334158,24,04-03-2015,12:14:03
12008,10,D,E,0,19095,329276,24,04-03-2015,12:14:03
12008,11,C,C,1,5387,309649,24,04-03-2015,12:14:03
12008,12,B,B,1,5503,303734,24,04-03-2015,12:14:03
12008,13,B,B,1,14200,297702,24,04-03-2015,12:14:03
12008,14,B,B,1,5150,282973,24,04-03-2015,12:14:03
12008,15,D,D,1,17155,277292,24,04-03-2015,12:14:03
12008,16,E,E,1,9629,259614,24,04-03-2015,12:14:03
12008,17,E,E,1,9977,249450,24,04-03-2015,12:14:03
12008,18,E,E,1,8336,238953,24,04-03-2015,12:14:03
12008,19,D,E,0,58796,230089,24,04-03-2015,12:14:03
12008,20,E,E,1,31270,170773,24,04-03-2015,12:14:03
12008,21,A,A,1,11646,138966,24,04-03-2015,12:14:03
12008,22,B,B,1,8906,126786,24,04-03-2015,12:14:03
12008,23,D,D,1,9530,117356,24,04-03-2015,12:14:03
12008,24,A,A,1,6363,107292,24,04-03-2015,12:14:03
12008,25,A,A,1,21344,100394,24,04-03-2015,12:14:03
12008,26,E,B,0,74262,78517,24,04-03-2015,12:14:03
12010,1,A,A,1,5229,420000,21,04-21-2015,15:19:27
12010,2,E,E,1,3816,414168,21,04-21-2015,15:19:27
12010,3,D,D,1,18202,409820,21,04-21-2015,15:19:27
12010,4,B,B,1,8666,391092,21,04-21-2015,15:19:27
12010,5,D,D,1,7796,381895,21,04-21-2015,15:19:27
12010,6,D,D,1,41758,373564,21,04-21-2015,15:19:27
12010,7,C,C,1,18918,331277,21,04-21-2015,15:19:27
12010,8,C,C,1,25353,311832,21,04-21-2015,15:19:27
12010,9,B,B,1,14524,285957,21,04-21-2015,15:19:27
12010,10,D,D,1,26301,270912,21,04-21-2015,15:19:27
12010,11,C,C,1,11987,244086,21,04-21-2015,15:19:27
12010,12,B,B,1,16489,231573,21,04-21-2015,15:19:27
12010,13,B,B,1,15540,214562,21,04-21-2015,15:19:27
12010,14,B,B,1,5758,198500,21,04-21-2015,15:19:27
12010,15,D,D,1,15035,192219,21,04-21-2015,15:19:27
12010,16,E,E,1,13553,176657,21,04-21-2015,15:19:27
12010,17,E,E,1,17184,162578,21,04-21-2015,15:19:27
12010,18,E,E,1,41607,144866,21,04-21-2015,15:19:27
12010,19,D,D,1,21899,102729,21,04-21-2015,15:19:27
12010,20,E,E,1,24312,80302,21,04-21-2015,15:19:27
12010,21,A,A,1,22315,55460,21,04-21-2015,15:19:27
12012,1,A,A,1,8928,420000,20,03-31-2015,11:19:12
12012,2,E,E,1,6232,410453,20,03-31-2015,11:19:12
12012,3,D,D,1,12851,403689,20,03-31-2015,11:19:12
12012,4,B,B,1,10767,390309,20,03-31-2015,11:19:12
12012,5,D,D,1,9997,379012,20,03-31-2015,11:19:12
12012,6,D,D,1,26586,368483,20,03-31-2015,11:19:12
12012,7,C,C,1,22803,341374,20,03-31-2015,11:19:12
12012,8,C,C,1,22956,318048,20,03-31-2015,11:19:12
12012,9,B,B,1,15727,294571,20,03-31-2015,11:19:12
12012,10,D,D,1,22239,278309,20,03-31-2015,11:19:12
12012,11,C,C,1,9967,255549,20,03-31-2015,11:19:12
12012,12,B,B,1,24108,245053,20,03-31-2015,11:19:12
12012,13,B,B,1,21033,220410,20,03-31-2015,11:19:12
12012,14,B,B,1,13079,198850,20,03-31-2015,11:19:12
12012,15,D,D,1,30537,185237,20,03-31-2015,11:19:12
12012,16,E,E,1,17630,154180,20,03-31-2015,11:19:12
12012,17,E,E,1,31555,136019,20,03-31-2015,11:19:12
12012,18,E,E,1,21152,103928,20,03-31-2015,11:19:12
12012,19,D,D,1,18266,82251,20,03-31-2015,11:19:12
12012,20,E,E,1,56036,63457,20,03-31-2015,11:19:12
12013,1,A,A,1,5593,420000,19,04-03-2015,15:24:57
12013,2,E,E,1,6461,413786,19,04-03-2015,15:24:57
12013,3,D,D,1,8568,406804,19,04-03-2015,15:24:57
12013,4,B,B,1,19470,397707,19,04-03-2015,15:24:57
12013,5,D,D,1,4971,377713,19,04-03-2015,15:24:57
12013,6,D,D,1,9464,372215,19,04-03-2015,15:24:57
12013,7,C,C,1,9906,362218,19,04-03-2015,15:24:57
12013,8,C,C,1,11163,351788,19,04-03-2015,15:24:57
12013,9,B,B,1,13537,340091,19,04-03-2015,15:24:57
12013,10,D,D,1,25906,326029,19,04-03-2015,15:24:57
12013,11,C,C,1,32175,299601,19,04-03-2015,15:24:57
12013,12,B,B,1,9915,266896,19,04-03-2015,15:24:57
12013,13,B,B,1,21419,256449,19,04-03-2015,15:24:57
12013,14,B,B,1,20682,234506,19,04-03-2015,15:24:57
12013,15,D,D,1,28110,213296,19,04-03-2015,15:24:57
12013,16,E,E,1,12692,184654,19,04-03-2015,15:24:57
12013,17,E,E,1,28037,171441,19,04-03-2015,15:24:57
12013,18,E,E,1,11886,142883,19,04-03-2015,15:24:57
12013,19,D,D,1,54278,130470,19,04-03-2015,15:24:57
12014,1,A,A,1,6869,420000,21,10-06-2015,14:19:18
12014,2,E,E,1,3183,412518,21,10-06-2015,14:19:18
12014,3,D,D,1,9578,408803,21,10-06-2015,14:19:18
12014,4,B,B,1,6905,398689,21,10-06-2015,14:19:18
12014,5,D,D,1,5481,391258,21,10-06-2015,14:19:18
12014,6,D,D,1,8050,385243,21,10-06-2015,14:19:18
12014,7,C,C,1,9972,376662,21,10-06-2015,14:19:18
12014,8,C,C,1,11554,366166,21,10-06-2015,14:19:18
12014,9,B,B,1,6754,354086,21,10-06-2015,14:19:18
12014,10,D,D,1,29935,346805,21,10-06-2015,14:19:18
12014,11,C,C,1,14781,316347,21,10-06-2015,14:19:18
12014,12,B,B,1,17060,301035,21,10-06-2015,14:19:18
12014,13,B,B,1,23144,283440,21,10-06-2015,14:19:18
12014,14,B,B,1,5483,259764,21,10-06-2015,14:19:18
12014,15,D,D,1,17371,253749,21,10-06-2015,14:19:18
12014,16,E,E,1,23331,235855,21,10-06-2015,14:19:18
12014,17,E,E,1,13630,211995,21,10-06-2015,14:19:18
12014,18,E,E,1,21139,197833,21,10-06-2015,14:19:18
12014,19,D,D,1,41060,176172,21,10-06-2015,14:19:18
12014,20,E,E,1,16639,134585,21,10-06-2015,14:19:18
12014,21,A,A,1,102984,117423,21,10-06-2015,14:19:18
12015,1,A,A,1,6844,420000,18,04-22-2015,13:12:40
12015,2,E,E,1,8847,412552,18,04-22-2015,13:12:40
12015,3,D,D,1,14065,403172,18,04-22-2015,13:12:40
12015,4,B,B,1,7246,388576,18,04-22-2015,13:12:40
12015,5,D,D,1,11760,380794,18,04-22-2015,13:12:40
12015,6,D,A,0,17182,368499,18,04-22-2015,13:12:40
12015,7,C,C,1,33645,350787,18,04-22-2015,13:12:40
12015,8,C,C,1,8376,316614,18,04-22-2015,13:12:40
12015,9,B,B,1,14693,307717,18,04-22-2015,13:12:40
12015,10,D,D,1,19328,292504,18,04-22-2015,13:12:40
12015,11,C,C,1,7946,272643,18,04-22-2015,13:12:40
12015,12,B,B,1,24064,264163,18,04-22-2015,13:12:40
12015,13,B,E,0,24030,239570,18,04-22-2015,13:12:40
12015,14,B,B,1,8222,215011,18,04-22-2015,13:12:40
12015,15,D,D,1,57671,206263,18,04-22-2015,13:12:40
12015,16,E,E,1,18014,148064,18,04-22-2015,13:12:40
12015,17,E,E,1,9822,129518,18,04-22-2015,13:12:40
12015,18,E,E,1,31953,119172,18,04-22-2015,13:12:40
12015,19,D,D,1,7198,86699,18,04-22-2015,13:12:40
12015,20,E,E,1,15266,78968,18,04-22-2015,13:12:40
12016,1,A,A,1,6965,420000,18,03-04-2015,12:19:09
12016,2,E,E,1,8619,412419,18,03-04-2015,12:19:09
12016,3,D,D,1,8623,403272,18,03-04-2015,12:19:09
12016,4,B,B,1,12107,394125,18,03-04-2015,12:19:09
12016,5,D,D,1,5126,381494,18,03-04-2015,12:19:09
12016,6,D,D,1,14068,375847,18,03-04-2015,12:19:09
12016,7,C,C,1,69380,361251,18,03-04-2015,12:19:09
12016,8,C,C,1,12075,291339,18,03-04-2015,12:19:09
12016,9,B,B,1,27885,278743,18,03-04-2015,12:19:09
12016,10,D,C,0,34083,250335,18,03-04-2015,12:19:09
12016,11,C,C,1,18804,215728,18,03-04-2015,12:19:09
12016,12,B,B,1,9467,196402,18,03-04-2015,12:19:09
12016,13,B,C,0,9853,186405,18,03-04-2015,12:19:09
12016,14,B,B,1,14160,176025,18,03-04-2015,12:19:09
12016,15,D,D,1,18008,161329,18,03-04-2015,12:19:09
12016,16,E,C,0,11119,142801,18,03-04-2015,12:19:09
12016,17,E,E,1,7040,131155,18,03-04-2015,12:19:09
12016,18,E,E,1,19026,123591,18,03-04-2015,12:19:09
12016,19,D,D,1,20048,104030,18,03-04-2015,12:19:09
12016,20,E,E,1,6558,83453,18,03-04-2015,12:19:09
12016,21,A,E,0,13181,76372,18,03-04-2015,12:19:09
12016,22,B,E,0,46833,62659,18,03-04-2015,12:19:09
12016,23,D,D,1,5777,15306,18,03-04-2015,12:19:09
12018,1,A,A,1,9063,420000,11,04-09-2015,11:17:01
12018,2,E,E,1,9330,410319,11,04-09-2015,11:17:01
12018,3,D,D,1,8041,400455,11,04-09-2015,11:17:01
12018,4,B,B,1,6701,391891,11,04-09-2015,11:17:01
12018,5,D,D,1,3238,384659,11,04-09-2015,11:17:01
12018,6,D,B,0,4487,380895,11,04-09-2015,11:17:01
12018,7,C,C,1,27255,375879,11,04-09-2015,11:17:01
12018,8,C,C,1,5743,348104,11,04-09-2015,11:17:01
12018,9,B,C,0,6630,341840,11,04-09-2015,11:17:01
12018,10,D,A,0,15625,334675,11,04-09-2015,11:17:01
12018,11,C,A,0,1487,318529,11,04-09-2015,11:17:01
12018,12,B,E,0,4134,316514,11,04-09-2015,11:17:01
12018,13,B,B,1,1069,311849,11,04-09-2015,11:17:01
12018,14,B,B,1,3590,310249,11,04-09-2015,11:17:01
12018,15,D,D,1,7737,306134,11,04-09-2015,11:17:01
12018,16,E,A,0,1361,297869,11,04-09-2015,11:17:01
12018,17,E,C,0,478,295987,11,04-09-2015,11:17:01
12018,18,E,D,0,862,294987,11,04-09-2015,11:17:01
12018,19,D,C,0,4511,293604,11,04-09-2015,11:17:01
12018,20,E,D,0,968,288572,11,04-09-2015,11:17:01
12018,21,A,D,0,2356,287073,11,04-09-2015,11:17:01
12018,22,B,D,0,618,284190,11,04-09-2015,11:17:01
12018,23,D,B,0,347,283040,11,04-09-2015,11:17:01
12018,24,A,D,0,443,282174,11,04-09-2015,11:17:01
12018,25,A,B,0,565,280874,11,04-09-2015,11:17:01
12018,26,E,C,0,273,279775,11,04-09-2015,11:17:01
12018,27,C,B,0,346,278975,11,04-09-2015,11:17:01
12018,28,B,D,0,263,278109,11,04-09-2015,11:17:01
12018,29,C,C,1,240,277326,11,04-09-2015,11:17:01
12018,30,A,B,0,282,276559,11,04-09-2015,11:17:01
12021,1,A,A,1,10532,420000,17,03-10-2015,15:10:12
12021,2,E,E,1,31026,408853,17,03-10-2015,15:10:12
12021,3,D,D,1,14148,377295,17,03-10-2015,15:10:12
12021,4,B,B,1,9964,362616,17,03-10-2015,15:10:12
12021,5,D,D,1,5987,352119,17,03-10-2015,15:10:12
12021,6,D,D,1,16991,345605,17,03-10-2015,15:10:12
12021,7,C,C,1,34830,328093,17,03-10-2015,15:10:12
12021,8,C,C,1,33944,292737,17,03-10-2015,15:10:12
12021,9,B,B,1,26388,258264,17,03-10-2015,15:10:12
12021,10,D,D,1,29255,231355,17,03-10-2015,15:10:12
12021,11,C,C,1,61740,201564,17,03-10-2015,15:10:12
12021,12,B,B,1,19362,139299,17,03-10-2015,15:10:12
12021,13,B,B,1,24553,119405,17,03-10-2015,15:10:12
12021,14,B,B,1,19333,94329,17,03-10-2015,15:10:12
12021,15,D,D,1,38046,74468,17,03-10-2015,15:10:12
12021,16,E,E,1,19177,35896,17,03-10-2015,15:10:12
12021,17,E,E,1,15473,16185,17,03-10-2015,15:10:12
12022,1,A,D,0,28270,420000,14,03-03-2015,14:23:19
12022,2,E,E,1,12638,391109,14,03-03-2015,14:23:19
12022,3,D,D,1,12466,377947,14,03-03-2015,14:23:19
12022,4,B,E,0,31556,364951,14,03-03-2015,14:23:19
12022,5,D,D,1,5337,332860,14,03-03-2015,14:23:19
12022,6,D,D,1,16223,326996,14,03-03-2015,14:23:19
12022,7,C,C,1,295,310251,14,03-03-2015,14:23:19
12022,8,C,C,1,24660,280677,14,03-03-2015,14:23:19
12022,9,B,B,1,16251,255485,14,03-03-2015,14:23:19
12022,10,D,D,1,17560,238706,14,03-03-2015,14:23:19
12022,11,C,E,0,34335,220611,14,03-03-2015,14:23:19
12022,12,B,B,1,16709,185739,14,03-03-2015,14:23:19
12022,13,B,D,0,20391,168495,14,03-03-2015,14:23:19
12022,14,B,B,1,35589,147568,14,03-03-2015,14:23:19
12022,15,D,D,1,16098,111446,14,03-03-2015,14:23:19
12022,16,E,E,1,14365,94818,14,03-03-2015,14:23:19
12022,17,E,D,0,21556,79921,14,03-03-2015,14:23:19
12022,18,E,E,1,20182,57846,14,03-03-2015,14:23:19
12022,19,D,D,1,20614,37135,14,03-03-2015,14:23:19
12023,1,A,A,1,40713,420000,25,03-03-2015,13:13:42
12023,2,E,E,1,2721,378677,25,03-03-2015,13:13:42
12023,3,D,D,1,9495,375428,25,03-03-2015,13:13:42
12023,4,B,B,1,14929,365397,25,03-03-2015,13:13:42
12023,5,D,D,1,4306,349933,25,03-03-2015,13:13:42
12023,6,D,D,1,19769,345102,25,03-03-2015,13:13:42
12023,7,C,C,1,8218,324808,25,03-03-2015,13:13:42
12023,8,C,C,1,11174,316060,25,03-03-2015,13:13:42
12023,9,B,B,1,6485,304363,25,03-03-2015,13:13:42
12023,10,D,D,1,20262,297348,25,03-03-2015,13:13:42
12023,11,C,C,1,17835,276553,25,03-03-2015,13:13:42
12023,12,B,B,1,8521,258192,25,03-03-2015,13:13:42
12023,13,B,B,1,19097,249144,25,03-03-2015,13:13:42
12023,14,B,B,1,9684,229516,25,03-03-2015,13:13:42
12023,15,D,D,1,27093,219302,25,03-03-2015,13:13:42
12023,16,E,E,1,20843,191676,25,03-03-2015,13:13:42
12023,17,E,E,1,23224,170297,25,03-03-2015,13:13:42
12023,18,E,E,1,10432,146537,25,03-03-2015,13:13:42
12023,19,D,D,1,16500,135574,25,03-03-2015,13:13:42
12023,20,E,E,1,10342,118545,25,03-03-2015,13:13:42
12023,21,A,A,1,11126,107680,25,03-03-2015,13:13:42
12023,22,B,E,0,26983,96034,25,03-03-2015,13:13:42
12023,23,D,D,1,11225,68524,25,03-03-2015,13:13:42
12023,24,A,A,1,13118,56778,25,03-03-2015,13:13:42
12023,25,A,A,1,12896,43131,25,03-03-2015,13:13:42
12024,1,A,A,1,8873,420000,21,03-12-2015,15:05:39
12024,2,E,E,1,7228,410519,21,03-12-2015,15:05:39
12024,3,D,D,1,15471,402772,21,03-12-2015,15:05:39
12024,4,B,B,1,6611,386776,21,03-12-2015,15:05:39
12024,5,D,D,1,4992,379645,21,03-12-2015,15:05:39
12024,6,D,D,1,18348,374130,21,03-12-2015,15:05:39
12024,7,C,C,1,20581,355252,21,03-12-2015,15:05:39
12024,8,C,C,1,11014,334142,21,03-12-2015,15:05:39
12024,9,B,B,1,13826,322595,21,03-12-2015,15:05:39
12024,10,D,D,1,32022,308249,21,03-12-2015,15:05:39
12024,11,C,C,1,24896,275693,21,03-12-2015,15:05:39
12024,12,B,B,1,17101,250267,21,03-12-2015,15:05:39
12024,13,B,C,0,7928,232639,21,03-12-2015,15:05:39
12024,14,B,B,1,4912,224175,21,03-12-2015,15:05:39
12024,15,D,D,1,25998,218743,21,03-12-2015,15:05:39
12024,16,E,E,1,16040,192217,21,03-12-2015,15:05:39
12024,17,E,E,1,15053,175656,21,03-12-2015,15:05:39
12024,18,E,E,1,20425,160077,21,03-12-2015,15:05:39
12024,19,D,D,1,38599,139116,21,03-12-2015,15:05:39
12024,20,E,E,1,13252,99995,21,03-12-2015,15:05:39
12024,21,A,E,0,35367,86215,21,03-12-2015,15:05:39
12024,22,B,B,1,23980,50326,21,03-12-2015,15:05:39
12024,23,D,D,1,11166,25816,21,03-12-2015,15:05:39
12025,1,A,A,1,22727,420000,18,03-09-2015,14:45:28
12025,2,E,E,1,13626,396656,18,03-09-2015,14:45:28
12025,3,D,D,1,12599,382510,18,03-09-2015,14:45:28
12025,4,B,B,1,7126,369381,18,03-09-2015,14:45:28
12025,5,D,D,1,7773,361733,18,03-09-2015,14:45:28
12025,6,D,D,1,36937,353436,18,03-09-2015,14:45:28
12025,7,C,C,1,26727,315964,18,03-09-2015,14:45:28
12025,8,C,C,1,20803,288705,18,03-09-2015,14:45:28
12025,9,B,B,1,9028,267378,18,03-09-2015,14:45:28
12025,10,D,D,1,40390,257830,18,03-09-2015,14:45:28
12025,11,C,C,1,6813,216909,18,03-09-2015,14:45:28
12025,12,B,B,1,13936,209562,18,03-09-2015,14:45:28
12025,13,B,B,1,28992,195099,18,03-09-2015,14:45:28
12025,14,B,B,1,6539,165575,18,03-09-2015,14:45:28
12025,15,D,D,1,33385,158510,18,03-09-2015,14:45:28
12025,16,E,E,1,27476,124603,18,03-09-2015,14:45:28
12025,17,E,C,0,26099,96595,18,03-09-2015,14:45:28
12025,18,E,E,1,35087,69970,18,03-09-2015,14:45:28
12025,19,D,D,1,22528,34363,18,03-09-2015,14:45:28
12027,1,A,A,1,8976,420000,12,05-28-2015,15:05:32
12027,2,E,E,1,6055,410420,12,05-28-2015,15:05:32
12027,3,D,D,1,11329,403838,12,05-28-2015,15:05:32
12027,4,B,B,1,16345,391975,12,05-28-2015,15:05:32
12027,5,D,D,1,16089,375097,12,05-28-2015,15:05:32
12027,6,D,D,1,74298,358485,12,05-28-2015,15:05:32
12027,7,C,C,1,44963,283657,12,05-28-2015,15:05:32
12027,8,C,C,1,46010,238171,12,05-28-2015,15:05:32
12027,9,B,B,1,27079,191635,12,05-28-2015,15:05:32
12027,10,D,D,1,10871,164027,12,05-28-2015,15:05:32
12027,11,C,C,1,39863,152630,12,05-28-2015,15:05:32
12027,12,B,E,0,34489,112242,12,05-28-2015,15:05:32
12027,13,B,B,1,18994,77219,12,05-28-2015,15:05:32
12027,14,B,E,0,24600,57692,12,05-28-2015,15:05:32
12028,1,A,A,1,5513,420000,18,04-03-2015,13:10:16
12028,2,E,E,1,4680,413868,18,04-03-2015,13:10:16
12028,3,D,B,0,32695,408653,18,04-03-2015,13:10:16
12028,4,B,B,1,8279,375430,18,04-03-2015,13:10:16
12028,5,D,D,1,3425,366616,18,04-03-2015,13:10:16
12028,6,D,B,0,12571,362667,18,04-03-2015,13:10:16
12028,7,C,B,0,15570,349571,18,04-03-2015,13:10:16
12028,8,C,C,1,21882,333476,18,04-03-2015,13:10:16
12028,9,B,B,1,11983,311065,18,04-03-2015,13:10:16
12028,10,D,D,1,7229,298552,18,04-03-2015,13:10:16
12028,11,C,C,1,7825,290788,18,04-03-2015,13:10:16
12028,12,B,D,0,7741,282441,18,04-03-2015,13:10:16
12028,13,B,C,0,5828,274176,18,04-03-2015,13:10:16
12028,14,B,B,1,4784,267828,18,04-03-2015,13:10:16
12028,15,D,D,1,18220,262513,18,04-03-2015,13:10:16
12028,16,E,E,1,20978,243769,18,04-03-2015,13:10:16
12028,17,E,C,0,12403,222258,18,04-03-2015,13:10:16
12028,18,E,E,1,33927,209329,18,04-03-2015,13:10:16
12028,19,D,D,1,4958,174872,18,04-03-2015,13:10:16
12028,20,E,C,0,11780,169391,18,04-03-2015,13:10:16
12028,21,A,A,1,8962,157078,18,04-03-2015,13:10:16
12028,22,B,B,1,19192,147580,18,04-03-2015,13:10:16
12028,23,D,D,1,4864,127852,18,04-03-2015,13:10:16
12028,24,A,A,1,8289,122455,18,04-03-2015,13:10:16
12028,25,A,A,1,9323,113640,18,04-03-2015,13:10:16
12028,26,E,D,0,17955,103793,18,04-03-2015,13:10:16
12028,27,C,E,0,6580,85315,18,04-03-2015,13:10:16
12028,28,B,D,0,13272,78201,18,04-03-2015,13:10:16
12028,29,C,D,0,5732,64405,18,04-03-2015,13:10:16
12028,30,A,C,0,7180,58140,18,04-03-2015,13:10:16
12029,1,A,A,1,5462,420000,18,03-11-2015,14:17:39
12029,2,E,E,1,4111,413902,18,03-11-2015,14:17:39
12029,3,D,D,1,10117,409254,18,03-11-2015,14:17:39
12029,4,B,B,1,12550,398607,18,03-11-2015,14:17:39
12029,5,D,D,1,5278,385527,18,03-11-2015,14:17:39
12029,6,D,D,1,27494,379713,18,03-11-2015,14:17:39
12029,7,C,C,1,21907,351689,18,03-11-2015,14:17:39
12029,8,C,C,1,26038,329246,18,03-11-2015,14:17:39
12029,9,B,B,1,31548,302671,18,03-11-2015,14:17:39
12029,10,D,D,1,15970,270598,18,03-11-2015,14:17:39
12029,11,C,C,1,8690,254103,18,03-11-2015,14:17:39
12029,12,B,D,0,48610,244889,18,03-11-2015,14:17:39
12029,13,B,B,1,35336,195755,18,03-11-2015,14:17:39
12029,14,B,B,1,32821,159883,18,03-11-2015,14:17:39
12029,15,D,D,1,34462,126526,18,03-11-2015,14:17:39
12029,16,E,E,1,24959,91538,18,03-11-2015,14:17:39
12029,17,E,E,1,13394,66046,18,03-11-2015,14:17:39
12029,18,E,E,1,30471,52117,18,03-11-2015,14:17:39
12030,1,A,A,1,8662,420000,14,03-27-2015,10:22:55
12030,2,E,E,1,5409,410719,14,03-27-2015,10:22:55
12030,3,D,D,1,10276,404788,14,03-27-2015,10:22:55
12030,4,B,B,1,18686,393974,14,03-27-2015,10:22:55
12030,5,D,D,1,19122,374762,14,03-27-2015,10:22:55
12030,6,D,D,1,32131,355119,14,03-27-2015,10:22:55
12030,7,C,C,1,26137,322462,14,03-27-2015,10:22:55
12030,8,C,C,1,23206,295803,14,03-27-2015,10:22:55
12030,9,B,B,1,28461,272077,14,03-27-2015,10:22:55
12030,10,D,D,1,20548,243085,14,03-27-2015,10:22:55
12030,11,C,C,1,37221,222007,14,03-27-2015,10:22:55
12030,12,B,B,1,99427,184253,14,03-27-2015,10:22:55
12030,13,B,B,1,43519,84299,14,03-27-2015,10:22:55
12030,14,B,B,1,10489,40245,14,03-27-2015,10:22:55
12033,1,A,A,1,13418,420000,22,03-13-2015,10:13:36
12033,2,E,E,1,2865,405971,22,03-13-2015,10:13:36
12033,3,D,D,1,7065,402572,22,03-13-2015,10:13:36
12033,4,B,B,1,7275,394974,22,03-13-2015,10:13:36
12033,5,D,D,1,6052,387177,22,03-13-2015,10:13:36
12033,6,D,D,1,14662,380595,22,03-13-2015,10:13:36
12033,7,C,C,1,17018,365400,22,03-13-2015,10:13:36
12033,8,C,C,1,8960,347855,22,03-13-2015,10:13:36
12033,9,B,B,1,11343,338375,22,03-13-2015,10:13:36
12033,10,D,D,1,10336,326512,22,03-13-2015,10:13:36
12033,11,C,C,1,15999,315649,22,03-13-2015,10:13:36
12033,12,B,B,1,14022,299120,22,03-13-2015,10:13:36
12033,13,B,B,1,10731,284575,22,03-13-2015,10:13:36
12033,14,B,B,1,13659,273312,22,03-13-2015,10:13:36
12033,15,D,D,1,27366,259133,22,03-13-2015,10:13:36
12033,16,E,E,1,14282,231241,22,03-13-2015,10:13:36
12033,17,E,E,1,8020,216429,22,03-13-2015,10:13:36
12033,18,E,E,1,23632,207882,22,03-13-2015,10:13:36
12033,19,D,D,1,14192,183722,22,03-13-2015,10:13:36
12033,20,E,A,0,74962,168994,22,03-13-2015,10:13:36
12033,21,A,A,1,15115,93500,22,03-13-2015,10:13:36
12033,22,B,B,1,32867,77855,22,03-13-2015,10:13:36
12033,23,D,D,1,6053,44465,22,03-13-2015,10:13:36
12034,1,A,A,1,34546,420000,8,05-22-2015,14:49:46
12034,2,E,E,1,16816,384844,8,05-22-2015,14:49:46
12034,3,D,D,1,13310,367499,8,05-22-2015,14:49:46
12034,4,B,B,1,12232,353653,8,05-22-2015,14:49:46
12034,5,D,D,1,14932,340889,8,05-22-2015,14:49:46
12034,6,D,D,1,120991,325428,8,05-22-2015,14:49:46
12034,7,C,C,1,82912,203914,8,05-22-2015,14:49:46
12035,1,A,A,1,22383,420000,17,03-11-2015,10:03:54
12035,2,E,E,1,4649,397007,17,03-11-2015,10:03:54
12035,3,D,D,1,10378,391825,17,03-11-2015,10:03:54
12035,4,B,B,1,5945,380911,17,03-11-2015,10:03:54
12035,5,D,D,1,3791,374430,17,03-11-2015,10:03:54
12035,6,D,D,1,14010,370115,17,03-11-2015,10:03:54
12035,7,C,C,1,20424,355569,17,03-11-2015,10:03:54
12035,8,C,C,1,29382,334609,17,03-11-2015,10:03:54
12035,9,B,B,1,34416,304700,17,03-11-2015,10:03:54
12035,10,D,E,0,22643,269761,17,03-11-2015,10:03:54
12035,11,C,E,0,19025,246585,17,03-11-2015,10:03:54
12035,12,B,B,1,33087,227024,17,03-11-2015,10:03:54
12035,13,B,B,1,14126,193402,17,03-11-2015,10:03:54
12035,14,B,B,1,18926,178740,17,03-11-2015,10:03:54
12035,15,D,C,0,41823,159279,17,03-11-2015,10:03:54
12035,16,E,E,1,39498,116926,17,03-11-2015,10:03:54
12035,17,E,E,1,31971,76904,17,03-11-2015,10:03:54
12035,18,E,E,1,29278,44398,17,03-11-2015,10:03:54
12035,19,D,D,1,12166,14590,17,03-11-2015,10:03:54
12038,1,A,A,1,9462,420000,15,04-01-2015,13:11:54
12038,2,E,E,1,8744,409919,15,04-01-2015,13:11:54
12038,3,D,E,0,10479,400656,15,04-01-2015,13:11:54
12038,4,B,B,1,9778,389642,15,04-01-2015,13:11:54
12038,5,D,D,1,4104,379345,15,04-01-2015,13:11:54
12038,6,D,E,0,30151,374713,15,04-01-2015,13:11:54
12038,7,C,D,0,6916,344038,15,04-01-2015,13:11:54
12038,8,C,D,0,31714,336591,15,04-01-2015,13:11:54
12038,9,B,D,0,9137,304351,15,04-01-2015,13:11:54
12038,10,D,D,1,8777,294687,15,04-01-2015,13:11:54
12038,11,C,C,1,15783,285390,15,04-01-2015,13:11:54
12038,12,B,B,1,37749,269078,15,04-01-2015,13:11:54
12038,13,B,C,0,9932,230806,15,04-01-2015,13:11:54
12038,14,B,B,1,4180,220343,15,04-01-2015,13:11:54
12038,15,D,E,0,3648,215628,15,04-01-2015,13:11:54
12038,16,E,E,1,5002,211445,15,04-01-2015,13:11:54
12038,17,E,C,0,3622,205914,15,04-01-2015,13:11:54
12038,18,E,C,0,7385,201765,15,04-01-2015,13:11:54
12038,19,D,D,1,8110,193851,15,04-01-2015,13:11:54
12038,20,E,D,0,3023,185220,15,04-01-2015,13:11:54
12038,21,A,A,1,1962,181671,15,04-01-2015,13:11:54
12038,22,B,E,0,8127,179188,15,04-01-2015,13:11:54
12038,23,D,D,1,6791,170541,15,04-01-2015,13:11:54
12038,24,A,D,0,2684,163227,15,04-01-2015,13:11:54
12038,25,A,A,1,2692,160011,15,04-01-2015,13:11:54
12038,26,E,A,0,6765,156795,15,04-01-2015,13:11:54
12038,27,C,C,1,6594,149497,15,04-01-2015,13:11:54
12038,28,B,D,0,1431,142383,15,04-01-2015,13:11:54
12038,29,C,B,0,5193,140417,15,04-01-2015,13:11:54
12038,30,A,A,1,1398,134702,15,04-01-2015,13:11:54
12039,1,A,E,0,5848,420000,5,08-04-2015,14:03:52
12039,2,E,A,0,867,413535,5,08-04-2015,14:03:52
12039,3,D,A,0,5267,412135,5,08-04-2015,14:03:52
12039,4,B,E,0,6419,406337,5,08-04-2015,14:03:52
12039,5,D,B,0,1151,399389,5,08-04-2015,14:03:52
12039,6,D,A,0,1196,397706,5,08-04-2015,14:03:52
12039,7,C,D,0,744,395990,5,08-04-2015,14:03:52
12039,8,C,B,0,574,394723,5,08-04-2015,14:03:52
12039,9,B,B,1,610,393624,5,08-04-2015,14:03:52
12039,10,D,A,0,893,392491,5,08-04-2015,14:03:52
12039,11,C,D,0,381,391074,5,08-04-2015,14:03:52
12039,12,B,B,1,489,390174,5,08-04-2015,14:03:52
12039,13,B,E,0,1241,389158,5,08-04-2015,14:03:52
12039,14,B,B,1,754,387392,5,08-04-2015,14:03:52
12039,15,D,B,0,335,386109,5,08-04-2015,14:03:52
12039,16,E,C,0,437,385243,5,08-04-2015,14:03:52
12039,17,E,A,0,271,384276,5,08-04-2015,14:03:52
12039,18,E,D,0,367,383476,5,08-04-2015,14:03:52
12039,19,D,A,0,667,382577,5,08-04-2015,14:03:52
12039,20,E,C,0,587,381377,5,08-04-2015,14:03:52
12039,21,A,E,0,2503,380261,5,08-04-2015,14:03:52
12039,22,B,A,0,3246,377228,5,08-04-2015,14:03:52
12039,23,D,E,0,2153,373461,5,08-04-2015,14:03:52
12039,24,A,A,1,2622,370780,5,08-04-2015,14:03:52
12039,25,A,C,0,985,367631,5,08-04-2015,14:03:52
12039,26,E,B,0,573,366114,5,08-04-2015,14:03:52
12039,27,C,E,0,896,365015,5,08-04-2015,14:03:52
12039,28,B,A,0,480,363598,5,08-04-2015,14:03:52
12039,29,C,C,1,1120,362597,5,08-04-2015,14:03:52
12039,30,A,C,0,1206,360949,5,08-04-2015,14:03:52
12040,1,A,A,1,2828,420000,2,08-04-2015,14:06:15
12040,2,E,C,0,1215,416568,2,08-04-2015,14:06:15
12040,3,D,A,0,3842,414818,2,08-04-2015,14:06:15
12040,4,B,D,0,4260,410453,2,08-04-2015,14:06:15
12040,5,D,D,1,5062,405670,2,08-04-2015,14:06:15
12040,6,D,A,0,4128,400089,2,08-04-2015,14:06:15
12040,7,C,B,0,2271,395440,2,08-04-2015,14:06:15
12040,8,C,D,0,3487,392641,2,08-04-2015,14:06:15
12040,9,B,A,0,3703,388625,2,08-04-2015,14:06:15
12040,10,D,C,0,2647,384393,2,08-04-2015,14:06:15
12040,11,C,D,0,2241,381210,2,08-04-2015,14:06:15
12040,12,B,A,0,1451,378444,2,08-04-2015,14:06:15
12040,13,B,C,0,3476,376461,2,08-04-2015,14:06:15
12040,14,B,D,0,2437,372462,2,08-04-2015,14:06:15
12040,15,D,A,0,1999,369496,2,08-04-2015,14:06:15
12040,16,E,C,0,2386,366964,2,08-04-2015,14:06:15
12040,17,E,D,0,3966,364048,2,08-04-2015,14:06:15
12040,18,E,A,0,2659,359549,2,08-04-2015,14:06:15
12040,19,D,E,0,1661,356367,2,08-04-2015,14:06:15
12040,20,E,A,0,2398,354184,2,08-04-2015,14:06:15
12040,21,A,B,0,3466,351251,2,08-04-2015,14:06:15
12040,22,B,D,0,1267,347252,2,08-04-2015,14:06:15
12040,23,D,B,0,2331,345453,2,08-04-2015,14:06:15
12040,24,A,E,0,1465,342587,2,08-04-2015,14:06:15
12040,25,A,D,0,1370,340587,2,08-04-2015,14:06:15
12040,26,E,B,0,1645,338688,2,08-04-2015,14:06:15
12040,27,C,D,0,1255,336522,2,08-04-2015,14:06:15
12040,28,B,E,0,1760,334739,2,08-04-2015,14:06:15
12040,29,C,A,0,1573,332456,2,08-04-2015,14:06:15
12040,30,A,B,0,1698,330357,2,08-04-2015,14:06:15
12041,1,A,A,1,6205,420000,22,04-21-2015,14:41:59
12041,2,E,E,1,13010,413185,22,04-21-2015,14:41:59
12041,3,D,D,1,11759,399639,22,04-21-2015,14:41:59
12041,4,B,B,1,10983,387359,22,04-21-2015,14:41:59
12041,5,D,D,1,5077,375844,22,04-21-2015,14:41:59
12041,6,D,D,1,12390,370247,22,04-21-2015,14:41:59
12041,7,C,C,1,13805,357333,22,04-21-2015,14:41:59
12041,8,C,C,1,29034,343004,22,04-21-2015,14:41:59
12041,9,B,B,1,7723,313445,22,04-21-2015,14:41:59
12041,10,D,D,1,39138,305197,22,04-21-2015,14:41:59
12041,11,C,C,1,14049,265524,22,04-21-2015,14:41:59
12041,12,B,B,1,10773,250944,22,04-21-2015,14:41:59
12041,13,B,B,1,7292,239647,22,04-21-2015,14:41:59
12041,14,B,B,1,10285,231833,22,04-21-2015,14:41:59
12041,15,D,D,1,22239,221019,22,04-21-2015,14:41:59
12041,16,E,E,1,19685,198258,22,04-21-2015,14:41:59
12041,17,E,E,1,12058,178046,22,04-21-2015,14:41:59
12041,18,E,E,1,23885,165467,22,04-21-2015,14:41:59
12041,19,D,D,1,12907,141056,22,04-21-2015,14:41:59
12041,20,E,E,1,15293,127626,22,04-21-2015,14:41:59
12041,21,A,A,1,14423,111797,22,04-21-2015,14:41:59
12041,22,B,E,0,9213,96851,22,04-21-2015,14:41:59
12041,23,D,A,0,38600,87103,22,04-21-2015,14:41:59
12041,24,A,D,0,13244,47964,22,04-21-2015,14:41:59
12041,25,A,C,0,7664,34184,22,04-21-2015,14:41:59
12041,26,E,B,0,2954,25986,22,04-21-2015,14:41:59
12041,27,C,C,1,19583,22504,22,04-21-2015,14:41:59
12043,1,A,A,1,21427,420000,16,03-04-2015,14:09:46
12043,2,E,E,1,6323,397956,16,03-04-2015,14:09:46
12043,3,D,D,1,14914,391108,16,03-04-2015,14:09:46
12043,4,B,B,1,19819,375662,16,03-04-2015,14:09:46
12043,5,D,D,1,5355,355318,16,03-04-2015,14:09:46
12043,6,D,D,1,25927,349437,16,03-04-2015,14:09:46
12043,7,C,C,1,20387,322978,16,03-04-2015,14:09:46
12043,8,C,A,0,25996,302067,16,03-04-2015,14:09:46
12043,9,B,B,1,17109,275541,16,03-04-2015,14:09:46
12043,10,D,D,1,35063,257913,16,03-04-2015,14:09:46
12043,11,C,C,1,40871,222323,16,03-04-2015,14:09:46
12043,12,B,B,1,23961,180919,16,03-04-2015,14:09:46
12043,13,B,A,0,12635,156426,16,03-04-2015,14:09:46
12043,14,B,B,1,9096,143263,16,03-04-2015,14:09:46
12043,15,D,D,1,43367,133632,16,03-04-2015,14:09:46
12043,16,E,E,1,28574,89744,16,03-04-2015,14:09:46
12043,17,E,E,1,21305,60637,16,03-04-2015,14:09:46
12043,18,E,E,1,16165,38810,16,03-04-2015,14:09:46
12047,1,A,A,1,7033,420000,12,09-30-2015,16:17:53
12047,2,E,E,1,10220,412336,12,09-30-2015,16:17:53
12047,3,D,D,1,15304,401589,12,09-30-2015,16:17:53
12047,4,B,B,1,24570,385761,12,09-30-2015,16:17:53
12047,5,D,D,1,24668,360667,12,09-30-2015,16:17:53
12047,6,D,D,1,13522,335476,12,09-30-2015,16:17:53
12047,7,C,C,1,20044,321430,12,09-30-2015,16:17:53
12047,8,C,A,0,25137,300853,12,09-30-2015,16:17:53
12047,9,B,E,0,24149,275194,12,09-30-2015,16:17:53
12047,10,D,D,1,12912,250518,12,09-30-2015,16:17:53
12047,11,C,D,0,15977,237071,12,09-30-2015,16:17:53
12047,12,B,A,0,4872,220561,12,09-30-2015,16:17:53
12047,13,B,C,0,28169,215162,12,09-30-2015,16:17:53
12047,14,B,B,1,18147,186471,12,09-30-2015,16:17:53
12047,15,D,D,1,10390,167793,12,09-30-2015,16:17:53
12047,16,E,C,0,16259,156880,12,09-30-2015,16:17:53
12047,17,E,C,0,2487,140085,12,09-30-2015,16:17:53
12047,18,E,C,0,2960,137069,12,09-30-2015,16:17:53
12047,19,D,A,0,781,133587,12,09-30-2015,16:17:53
12047,20,E,B,0,1681,131054,12,09-30-2015,16:17:53
12047,21,A,A,1,1177,128838,12,09-30-2015,16:17:53
12047,22,B,B,1,1093,127139,12,09-30-2015,16:17:53
12047,23,D,B,0,528,125522,12,09-30-2015,16:17:53
12047,24,A,C,0,1158,121541,12,09-30-2015,16:17:53
12047,25,A,C,0,2275,119858,12,09-30-2015,16:17:53
12047,26,E,D,0,8531,117059,12,09-30-2015,16:17:53
12047,27,C,E,0,3003,107995,12,09-30-2015,16:17:53
12047,28,B,D,0,12318,104461,12,09-30-2015,16:17:53
12047,29,C,B,0,4432,91616,12,09-30-2015,16:17:53
12047,30,A,C,0,6035,86651,12,09-30-2015,16:17:53
12048,1,A,A,1,13307,420000,16,03-11-2015,09:19:37
12048,2,E,D,0,33636,406088,16,03-11-2015,09:19:37
12048,3,D,D,1,16582,371914,16,03-11-2015,09:19:37
12048,4,B,B,1,7238,354803,16,03-11-2015,09:19:37
12048,5,D,D,1,4865,347037,16,03-11-2015,09:19:37
12048,6,D,D,1,36825,341640,16,03-11-2015,09:19:37
12048,7,C,C,1,34835,304284,16,03-11-2015,09:19:37
12048,8,C,C,1,28749,268928,16,03-11-2015,09:19:37
12048,9,B,B,1,35048,239654,16,03-11-2015,09:19:37
12048,10,D,D,1,15674,204081,16,03-11-2015,09:19:37
12048,11,C,C,1,24005,187869,16,03-11-2015,09:19:37
12048,12,B,A,0,20974,163343,16,03-11-2015,09:19:37
12048,13,B,B,1,35423,141849,16,03-11-2015,09:19:37
12048,14,B,B,1,10458,105893,16,03-11-2015,09:19:37
12048,15,D,C,0,9532,94913,16,03-11-2015,09:19:37
12048,16,E,E,1,20812,84849,16,03-11-2015,09:19:37
12048,17,E,E,1,30882,63506,16,03-11-2015,09:19:37
12048,18,E,E,1,17570,32098,16,03-11-2015,09:19:37
12049,1,A,A,1,6985,420000,18,04-01-2015,15:06:40
12049,2,E,E,1,11821,412402,18,04-01-2015,15:06:40
12049,3,D,D,1,12394,400055,18,04-01-2015,15:06:40
12049,4,B,B,1,6992,387126,18,04-01-2015,15:06:40
12049,5,D,D,1,4094,379611,18,04-01-2015,15:06:40
12049,6,D,E,0,19718,374996,18,04-01-2015,15:06:40
12049,7,C,C,1,20728,354752,18,04-01-2015,15:06:40
12049,8,C,C,1,21650,333492,18,04-01-2015,15:06:40
12049,9,B,C,0,8752,311315,18,04-01-2015,15:06:40
12049,10,D,D,1,11344,302034,18,04-01-2015,15:06:40
12049,11,C,D,0,28695,290171,18,04-01-2015,15:06:40
12049,12,B,B,1,24093,260947,18,04-01-2015,15:06:40
12049,13,B,B,1,25017,236320,18,04-01-2015,15:06:40
12049,14,B,B,1,7018,210778,18,04-01-2015,15:06:40
12049,15,D,D,1,25621,203230,18,04-01-2015,15:06:40
12049,16,E,E,1,23701,177088,18,04-01-2015,15:06:40
12049,17,E,E,1,32977,152862,18,04-01-2015,15:06:40
12049,18,E,E,1,33869,119355,18,04-01-2015,15:06:40
12049,19,D,D,1,13789,84949,18,04-01-2015,15:06:40
12049,20,E,E,1,22948,70636,18,04-01-2015,15:06:40
12049,21,A,A,1,39276,47160,18,04-01-2015,15:06:40
12050,1,A,A,1,6425,420000,11,04-10-2015,14:06:31
12050,2,E,E,1,4341,412969,11,04-10-2015,14:06:31
12050,3,D,D,1,9611,408104,11,04-10-2015,14:06:31
12050,4,B,B,1,28167,397957,11,04-10-2015,14:06:31
12050,5,D,D,1,5459,369264,11,04-10-2015,14:06:31
12050,6,D,D,1,29675,363283,11,04-10-2015,14:06:31
12050,7,C,C,1,11476,333075,11,04-10-2015,14:06:31
12050,8,C,D,0,270,321080,11,04-10-2015,14:06:31
12050,9,B,E,0,15083,259314,11,04-10-2015,14:06:31
12050,10,D,D,1,30157,239003,11,04-10-2015,14:06:31
12050,11,C,C,1,16721,208312,11,04-10-2015,14:06:31
12050,12,B,D,0,4163,191069,11,04-10-2015,14:06:31
12050,13,B,C,0,401,186369,11,04-10-2015,14:06:31
12050,14,B,C,0,395,185437,11,04-10-2015,14:06:31
12050,15,D,B,0,431,184520,11,04-10-2015,14:06:31
12050,16,E,E,1,7089,183554,11,04-10-2015,14:06:31
12050,17,E,E,1,13529,175939,11,04-10-2015,14:06:31
12050,18,E,C,0,403,161876,11,04-10-2015,14:06:31
12050,19,D,B,0,5581,160944,11,04-10-2015,14:06:31
12050,20,E,B,0,298,154829,11,04-10-2015,14:06:31
12050,21,A,B,0,26272,153995,11,04-10-2015,14:06:31
12050,22,B,E,0,5527,127203,11,04-10-2015,14:06:31
12050,23,D,A,0,1343,121156,11,04-10-2015,14:06:31
12050,24,A,C,0,3693,119290,11,04-10-2015,14:06:31
12050,25,A,C,0,1909,115075,11,04-10-2015,14:06:31
12050,26,E,C,0,16036,112641,11,04-10-2015,14:06:31
12050,27,C,B,0,1074,96080,11,04-10-2015,14:06:31
12050,28,B,D,0,14345,94480,11,04-10-2015,14:06:31
12050,29,C,D,0,1546,79601,11,04-10-2015,14:06:31
12050,30,A,B,0,3647,77536,11,04-10-2015,14:06:31
12051,1,A,A,1,8387,420000,9,03-16-2015,11:13:59
12051,2,E,E,1,3617,411002,9,03-16-2015,11:13:59
12051,3,D,D,1,14619,406853,9,03-16-2015,11:13:59
12051,4,B,B,1,8785,391708,9,03-16-2015,11:13:59
12051,5,D,D,1,4078,382393,9,03-16-2015,11:13:59
12051,6,D,B,0,8792,377795,9,03-16-2015,11:13:59
12051,7,C,D,0,9077,368481,9,03-16-2015,11:13:59
12051,8,C,B,0,16023,358884,9,03-16-2015,11:13:59
12051,9,B,C,0,6045,342339,9,03-16-2015,11:13:59
12051,10,D,C,0,16040,335774,9,03-16-2015,11:13:59
12051,11,C,C,1,7142,319211,9,03-16-2015,11:13:59
12051,12,B,A,0,16732,311548,9,03-16-2015,11:13:59
12051,13,B,D,0,5246,294286,9,03-16-2015,11:13:59
12051,14,B,E,0,9648,288505,9,03-16-2015,11:13:59
12051,15,D,E,0,15187,278324,9,03-16-2015,11:13:59
12051,16,E,E,1,13642,262612,9,03-16-2015,11:13:59
12051,17,E,A,0,28782,248449,9,03-16-2015,11:13:59
12051,18,E,C,0,11361,219142,9,03-16-2015,11:13:59
12051,19,D,D,1,11559,207245,9,03-16-2015,11:13:59
12051,20,E,C,0,8120,195165,9,03-16-2015,11:13:59
12051,21,A,C,0,10911,186518,9,03-16-2015,11:13:59
12051,22,B,C,0,10833,175071,9,03-16-2015,11:13:59
12051,23,D,D,1,8444,163708,9,03-16-2015,11:13:59
12051,24,A,B,0,6824,154744,9,03-16-2015,11:13:59
12051,25,A,D,0,10107,147396,9,03-16-2015,11:13:59
12051,26,E,A,0,13716,136766,9,03-16-2015,11:13:59
12051,27,C,A,0,13254,122520,9,03-16-2015,11:13:59
12051,28,B,D,0,3242,108739,9,03-16-2015,11:13:59
12051,29,C,E,0,6252,104975,9,03-16-2015,11:13:59
12051,30,A,C,0,7175,98193,9,03-16-2015,11:13:59
12052,1,A,A,1,19805,420000,15,03-23-2015,15:28:18
12052,2,E,E,1,7181,399589,15,03-23-2015,15:28:18
12052,3,D,D,1,11265,391875,15,03-23-2015,15:28:18
12052,4,B,B,1,48594,380079,15,03-23-2015,15:28:18
12052,5,D,D,1,10347,330959,15,03-23-2015,15:28:18
12052,6,D,D,1,17465,320080,15,03-23-2015,15:28:18
12052,7,C,C,1,36541,302085,15,03-23-2015,15:28:18
12052,8,C,C,1,27587,265013,15,03-23-2015,15:28:18
12052,9,B,B,1,22053,236888,15,03-23-2015,15:28:18
12052,10,D,D,1,30282,214312,15,03-23-2015,15:28:18
12052,11,C,C,1,29265,183504,15,03-23-2015,15:28:18
12052,12,B,B,1,18808,153714,15,03-23-2015,15:28:18
12052,13,B,B,1,25896,134385,15,03-23-2015,15:28:18
12052,14,B,B,1,13109,107961,15,03-23-2015,15:28:18
12052,15,D,A,0,39485,94332,15,03-23-2015,15:28:18
12052,16,E,E,1,20887,54310,15,03-23-2015,15:28:18
12053,1,A,A,1,5090,420000,25,03-10-2015,13:13:47
12053,2,E,E,1,5091,414301,25,03-10-2015,13:13:47
12053,3,D,D,1,16219,408686,25,03-10-2015,13:13:47
12053,4,B,B,1,5425,391941,25,03-10-2015,13:13:47
12053,5,D,D,1,8204,385993,25,03-10-2015,13:13:47
12053,6,D,D,1,13345,377262,25,03-10-2015,13:13:47
12053,7,C,C,1,8064,363383,25,03-10-2015,13:13:47
12053,8,C,C,1,24770,354785,25,03-10-2015,13:13:47
12053,9,B,B,1,5829,329493,25,03-10-2015,13:13:47
12053,10,D,D,1,12928,323128,25,03-10-2015,13:13:47
12053,11,C,C,1,5025,309665,25,03-10-2015,13:13:47
12053,12,B,B,1,10956,304117,25,03-10-2015,13:13:47
12053,13,B,B,1,636,292637,25,03-10-2015,13:13:47
12053,14,B,B,1,6453,276992,25,03-10-2015,13:13:47
12053,15,D,D,1,35493,270011,25,03-10-2015,13:13:47
12053,16,E,E,1,11462,233988,25,03-10-2015,13:13:47
12053,17,E,E,1,23256,221991,25,03-10-2015,13:13:47
12053,18,E,D,0,24999,198215,25,03-10-2015,13:13:47
12053,19,D,D,1,24127,172689,25,03-10-2015,13:13:47
12053,20,E,E,1,707,148030,25,03-10-2015,13:13:47
12053,21,A,A,1,2049,127069,25,03-10-2015,13:13:47
12053,22,B,B,1,34697,106975,25,03-10-2015,13:13:47
12053,23,D,D,1,27169,71752,25,03-10-2015,13:13:47
12053,24,A,A,1,4404,44061,25,03-10-2015,13:13:47
12053,25,A,A,1,8248,39129,25,03-10-2015,13:13:47
12053,26,E,E,1,14490,30348,25,03-10-2015,13:13:47
12053,27,C,B,0,15125,15336,25,03-10-2015,13:13:47
12056,1,A,A,1,21400,420000,18,03-13-2015,11:55:41
12056,2,E,E,1,6681,397990,18,03-13-2015,11:55:41
12056,3,D,D,1,9634,390775,18,03-13-2015,11:55:41
12056,4,B,B,1,10733,380612,18,03-13-2015,11:55:41
12056,5,D,D,1,9510,369347,18,03-13-2015,11:55:41
12056,6,D,D,1,21206,359318,18,03-13-2015,11:55:41
12056,7,C,C,1,17038,337591,18,03-13-2015,11:55:41
12056,8,C,C,1,23315,320029,18,03-13-2015,11:55:41
12056,9,B,E,0,10056,296186,18,03-13-2015,11:55:41
12056,10,D,C,0,23714,285606,18,03-13-2015,11:55:41
12056,11,C,C,1,25438,261362,18,03-13-2015,11:55:41
12056,12,B,B,1,13430,235404,18,03-13-2015,11:55:41
12056,13,B,B,1,9619,221441,18,03-13-2015,11:55:41
12056,14,B,B,1,10823,211294,18,03-13-2015,11:55:41
12056,15,D,D,1,27699,199948,18,03-13-2015,11:55:41
12056,16,E,E,1,48823,171723,18,03-13-2015,11:55:41
12056,17,E,E,1,18574,122370,18,03-13-2015,11:55:41
12056,18,E,C,0,15510,103276,18,03-13-2015,11:55:41
12056,19,D,D,1,24776,87231,18,03-13-2015,11:55:41
12056,20,E,E,1,17266,61921,18,03-13-2015,11:55:41
12057,1,A,A,1,20304,420000,21,04-22-2015,16:16:52
12057,2,E,E,1,6428,399090,21,04-22-2015,16:16:52
12057,3,D,D,1,12151,392141,21,04-22-2015,16:16:52
12057,4,B,B,1,23543,379462,21,04-22-2015,16:16:52
12057,5,D,D,1,13514,355386,21,04-22-2015,16:16:52
12057,6,D,D,1,15443,341340,21,04-22-2015,16:16:52
12057,7,C,C,1,10791,325362,21,04-22-2015,16:16:52
12057,8,C,C,1,9134,314049,21,04-22-2015,16:16:52
12057,9,B,B,1,7117,304385,21,04-22-2015,16:16:52
12057,10,D,D,1,9534,296737,21,04-22-2015,16:16:52
12057,11,C,C,1,19820,286673,21,04-22-2015,16:16:52
12057,12,B,B,1,9980,266329,21,04-22-2015,16:16:52
12057,13,B,B,1,10145,255816,21,04-22-2015,16:16:52
12057,14,B,B,1,16296,245136,21,04-22-2015,16:16:52
12057,15,D,D,1,15371,228308,21,04-22-2015,16:16:52
12057,16,E,E,1,15835,212412,21,04-22-2015,16:16:52
12057,17,E,E,1,8233,196050,21,04-22-2015,16:16:52
12057,18,E,E,1,24323,187286,21,04-22-2015,16:16:52
12057,19,D,D,1,23455,162427,21,04-22-2015,16:16:52
12057,20,E,E,1,9070,138451,21,04-22-2015,16:16:52
12057,21,A,D,0,41254,128854,21,04-22-2015,16:16:52
12057,22,B,B,1,12922,87066,21,04-22-2015,16:16:52
12057,23,D,C,0,47193,73620,21,04-22-2015,16:16:52
12057,24,A,C,0,10881,25901,21,04-22-2015,16:16:52
12058,1,A,A,1,6306,420000,16,03-05-2015,14:24:34
12058,2,E,E,1,3490,413085,16,03-05-2015,14:24:34
12058,3,D,E,0,21474,409070,16,03-05-2015,14:24:34
12058,4,B,B,1,5535,387077,16,03-05-2015,14:24:34
12058,5,D,D,1,4695,381012,16,03-05-2015,14:24:34
12058,6,D,A,0,14959,375797,16,03-05-2015,14:24:34
12058,7,C,A,0,17150,360319,16,03-05-2015,14:24:34
12058,8,C,C,1,22295,342641,16,03-05-2015,14:24:34
12058,9,B,B,1,7164,319815,16,03-05-2015,14:24:34
12058,10,D,D,1,16522,312117,16,03-05-2015,14:24:34
12058,11,C,C,1,10844,295072,16,03-05-2015,14:24:34
12058,12,B,C,0,18511,283709,16,03-05-2015,14:24:34
12058,13,B,C,0,11019,264665,16,03-05-2015,14:24:34
12058,14,B,B,1,4903,253119,16,03-05-2015,14:24:34
12058,15,D,D,1,20775,247687,16,03-05-2015,14:24:34
12058,16,E,E,1,25607,226377,16,03-05-2015,14:24:34
12058,17,E,E,1,9368,200235,16,03-05-2015,14:24:34
12058,18,E,D,0,33356,190338,16,03-05-2015,14:24:34
12058,19,D,D,1,14458,156449,16,03-05-2015,14:24:34
12058,20,E,A,0,15918,141470,16,03-05-2015,14:24:34
12058,21,A,E,0,15480,125026,16,03-05-2015,14:24:34
12058,22,B,E,0,16786,109014,16,03-05-2015,14:24:34
12058,23,D,D,1,15794,91703,16,03-05-2015,14:24:34
12058,24,A,A,1,4026,75374,16,03-05-2015,14:24:34
12058,25,A,A,1,16476,70826,16,03-05-2015,14:24:34
12059,1,A,A,1,10456,420000,15,03-17-2015,09:59:36
12059,2,E,E,1,7459,408937,15,03-17-2015,09:59:36
12059,3,D,D,1,40069,400956,15,03-17-2015,09:59:36
12059,4,B,B,1,22823,360367,15,03-17-2015,09:59:36
12059,5,D,D,1,13959,337022,15,03-17-2015,09:59:36
12059,6,D,D,1,30791,322544,15,03-17-2015,09:59:36
12059,7,C,C,1,42528,291219,15,03-17-2015,09:59:36
12059,8,C,C,1,25048,248165,15,03-17-2015,09:59:36
12059,9,B,B,1,24471,222589,15,03-17-2015,09:59:36
12059,10,D,D,1,13157,197595,15,03-17-2015,09:59:36
12059,11,C,C,1,36772,183916,15,03-17-2015,09:59:36
12059,12,B,B,1,25105,146610,15,03-17-2015,09:59:36
12059,13,B,A,0,25414,120983,15,03-17-2015,09:59:36
12059,14,B,B,1,9486,95041,15,03-17-2015,09:59:36
12059,15,D,D,1,42583,85027,15,03-17-2015,09:59:36
12059,16,E,E,1,36069,41922,15,03-17-2015,09:59:36
12060,1,A,A,1,6493,420000,14,03-13-2015,10:10:18
12060,2,E,E,1,10973,412902,14,03-13-2015,10:10:18
12060,3,D,B,0,20316,401405,14,03-13-2015,10:10:18
12060,4,B,B,1,5560,380562,14,03-13-2015,10:10:18
12060,5,D,D,1,3662,374480,14,03-13-2015,10:10:18
12060,6,D,E,0,14503,370299,14,03-13-2015,10:10:18
12060,7,C,C,1,32736,355270,14,03-13-2015,10:10:18
12060,8,C,C,1,18390,322014,14,03-13-2015,10:10:18
12060,9,B,B,1,16606,303103,14,03-13-2015,10:10:18
12060,10,D,D,1,10733,285975,14,03-13-2015,10:10:18
12060,11,C,C,1,12790,274712,14,03-13-2015,10:10:18
12060,12,B,D,0,16851,261400,14,03-13-2015,10:10:18
12060,13,B,A,0,29439,244022,14,03-13-2015,10:10:18
12060,14,B,B,1,4569,214048,14,03-13-2015,10:10:18
12060,15,D,E,0,19469,208950,14,03-13-2015,10:10:18
12060,16,E,E,1,22417,188956,14,03-13-2015,10:10:18
12060,17,E,C,0,56598,166013,14,03-13-2015,10:10:18
12060,18,E,E,1,42127,108881,14,03-13-2015,10:10:18
12060,19,D,D,1,8121,66228,14,03-13-2015,10:10:18
12060,20,E,C,0,30503,57581,14,03-13-2015,10:10:18
12060,21,A,A,1,12943,26557,14,03-13-2015,10:10:18
12061,1,A,A,1,9713,420000,11,03-25-2015,10:19:23
12061,2,E,E,1,14946,409653,11,03-25-2015,10:19:23
12061,3,D,D,1,17889,394175,11,03-25-2015,10:19:23
12061,4,B,B,1,23109,375763,11,03-25-2015,10:19:23
12061,5,D,D,1,11401,352119,11,03-25-2015,10:19:23
12061,6,D,C,0,36165,340191,11,03-25-2015,10:19:23
12061,7,C,E,0,37338,303501,11,03-25-2015,10:19:23
12061,8,C,D,0,60479,265629,11,03-25-2015,10:19:23
12061,9,B,B,1,20525,204614,11,03-25-2015,10:19:23
12061,10,D,D,1,14337,183554,11,03-25-2015,10:19:23
12061,11,C,C,1,40576,168691,11,03-25-2015,10:19:23
12061,12,B,B,1,26134,127587,11,03-25-2015,10:19:23
12061,13,B,A,0,15898,100928,11,03-25-2015,10:19:23
12061,14,B,B,1,21980,84499,11,03-25-2015,10:19:23
12061,15,D,D,1,41988,61989,11,03-25-2015,10:19:23
12063,1,A,A,1,6376,420000,22,03-30-2015,16:13:38
12063,2,E,E,1,4838,413018,22,03-30-2015,16:13:38
12063,3,D,D,1,8361,407653,22,03-30-2015,16:13:38
12063,4,B,B,1,5271,398772,22,03-30-2015,16:13:38
12063,5,D,D,1,8425,392974,22,03-30-2015,16:13:38
12063,6,D,D,1,24259,384027,22,03-30-2015,16:13:38
12063,7,C,C,1,21834,359234,22,03-30-2015,16:13:38
12063,8,C,C,1,15737,336874,22,03-30-2015,16:13:38
12063,9,B,B,1,9130,320612,22,03-30-2015,16:13:38
12063,10,D,D,1,13738,310948,22,03-30-2015,16:13:38
12063,11,C,C,1,36152,296686,22,03-30-2015,16:13:38
12063,12,B,B,1,17703,259997,22,03-30-2015,16:13:38
12063,13,B,B,1,29697,241769,22,03-30-2015,16:13:38
12063,14,B,B,1,6360,211544,22,03-30-2015,16:13:38
12063,15,D,D,1,31541,204663,22,03-30-2015,16:13:38
12063,16,E,E,1,12659,172589,22,03-30-2015,16:13:38
12063,17,E,E,1,31637,159410,22,03-30-2015,16:13:38
12063,18,E,E,1,14559,127253,22,03-30-2015,16:13:38
12063,19,D,D,1,19007,112174,22,03-30-2015,16:13:38
12063,20,E,E,1,59756,92646,22,03-30-2015,16:13:38
12063,21,A,A,1,11842,32364,22,03-30-2015,16:13:38
12064,1,A,A,1,11303,420000,21,04-07-2015,10:22:21
12064,2,E,E,1,28695,408071,21,04-07-2015,10:22:21
12064,3,D,D,1,15126,378846,21,04-07-2015,10:22:21
12064,4,B,B,1,7407,363200,21,04-07-2015,10:22:21
12064,5,D,D,1,6988,355270,21,04-07-2015,10:22:21
12064,6,D,D,1,13001,347755,21,04-07-2015,10:22:21
12064,7,C,C,1,17519,334226,21,04-07-2015,10:22:21
12064,8,C,C,1,510,316181,21,04-07-2015,10:22:21
12064,9,B,B,1,18020,299970,21,04-07-2015,10:22:21
12064,10,D,D,1,12803,281425,21,04-07-2015,10:22:21
12064,11,C,C,1,38895,268096,21,04-07-2015,10:22:21
12064,12,B,B,1,9897,228674,21,04-07-2015,10:22:21
12064,13,B,B,1,29169,218244,21,04-07-2015,10:22:21
12064,14,B,B,1,5293,188553,21,04-07-2015,10:22:21
12064,15,D,D,1,25068,182738,21,04-07-2015,10:22:21
12064,16,E,E,1,23779,157146,21,04-07-2015,10:22:21
12064,17,E,E,1,9205,132836,21,04-07-2015,10:22:21
12064,18,E,E,1,17345,123106,21,04-07-2015,10:22:21
12064,19,D,D,1,68559,105228,21,04-07-2015,10:22:21
12064,20,E,E,1,13327,36148,21,04-07-2015,10:22:21
12064,21,A,A,1,10152,22302,21,04-07-2015,10:22:21
12065,1,A,A,1,22241,420000,21,03-16-2015,13:12:36
12065,2,E,E,1,5864,397140,21,03-16-2015,13:12:36
12065,3,D,D,1,15297,390742,21,03-16-2015,13:12:36
12065,4,B,B,1,8517,374913,21,03-16-2015,13:12:36
12065,5,D,D,1,5380,365865,21,03-16-2015,13:12:36
12065,6,D,D,1,38703,359951,21,03-16-2015,13:12:36
12065,7,C,C,1,39047,320712,21,03-16-2015,13:12:36
12065,8,C,C,1,22682,281140,21,03-16-2015,13:12:36
12065,9,B,B,1,24334,257931,21,03-16-2015,13:12:36
12065,10,D,D,1,4571,233071,21,03-16-2015,13:12:36
12065,11,C,C,1,18111,227973,21,03-16-2015,13:12:36
12065,12,B,B,1,14466,209328,21,03-16-2015,13:12:36
12065,13,B,B,1,19341,194332,21,03-16-2015,13:12:36
12065,14,B,B,1,8040,174471,21,03-16-2015,13:12:36
12065,15,D,D,1,29898,165907,21,03-16-2015,13:12:36
12065,16,E,E,1,19616,135483,21,03-16-2015,13:12:36
12065,17,E,E,1,25335,115338,21,03-16-2015,13:12:36
12065,18,E,E,1,26306,89480,21,03-16-2015,13:12:36
12065,19,D,D,1,30542,62638,21,03-16-2015,13:12:36
12065,20,E,E,1,17507,31563,21,03-16-2015,13:12:36
12068,1,A,A,1,13751,420000,15,04-20-2015,14:01:41
12068,2,E,E,1,8759,405621,15,04-20-2015,14:01:41
12068,3,D,D,1,31540,396341,15,04-20-2015,14:01:41
12068,4,B,B,1,16674,364267,15,04-20-2015,14:01:41
12068,5,D,D,1,23678,347072,15,04-20-2015,14:01:41
12068,6,D,D,1,25786,322863,15,04-20-2015,14:01:41
12068,7,C,C,1,38707,296554,15,04-20-2015,14:01:41
12068,8,C,C,1,45858,257316,15,04-20-2015,14:01:41
12068,9,B,B,1,28318,210930,15,04-20-2015,14:01:41
12068,10,D,D,1,22484,182088,15,04-20-2015,14:01:41
12068,11,C,C,1,22752,159078,15,04-20-2015,14:01:41
12068,12,B,B,1,47721,135802,15,04-20-2015,14:01:41
12068,13,B,B,1,36682,87550,15,04-20-2015,14:01:41
12068,14,B,B,1,11268,50344,15,04-20-2015,14:01:41
12068,15,D,D,1,35461,38548,15,04-20-2015,14:01:41
12070,1,A,A,1,8530,420000,8,03-26-2015,13:46:46
12070,2,E,E,1,12482,410853,8,03-26-2015,13:46:46
12070,3,D,D,1,8300,397840,8,03-26-2015,13:46:46
12070,4,B,B,1,25181,389009,8,03-26-2015,13:46:46
12070,5,D,D,1,25726,363299,8,03-26-2015,13:46:46
12070,6,D,C,0,45512,337041,8,03-26-2015,13:46:46
12070,7,C,E,0,13507,291005,8,03-26-2015,13:46:46
12070,8,C,D,0,22788,276976,8,03-26-2015,13:46:46
12070,9,B,D,0,29580,253666,8,03-26-2015,13:46:46
12070,10,D,D,1,11289,223558,8,03-26-2015,13:46:46
12070,11,C,E,0,17490,211745,8,03-26-2015,13:46:46
12070,12,B,C,0,3854,193717,8,03-26-2015,13:46:46
12070,13,B,E,0,6911,189335,8,03-26-2015,13:46:46
12070,14,B,B,1,4504,181904,8,03-26-2015,13:46:46
12070,15,D,D,1,9015,176872,8,03-26-2015,13:46:46
12070,16,E,D,0,47441,167325,8,03-26-2015,13:46:46
12070,17,E,C,0,2416,119356,8,03-26-2015,13:46:46
12070,18,E,D,0,3715,116406,8,03-26-2015,13:46:46
12070,19,D,C,0,24105,112158,8,03-26-2015,13:46:46
12070,20,E,C,0,9774,87532,8,03-26-2015,13:46:46
12070,21,A,B,0,1853,77235,8,03-26-2015,13:46:46
12070,22,B,D,0,791,74852,8,03-26-2015,13:46:46
12070,23,D,A,0,698,73536,8,03-26-2015,13:46:46
12070,24,A,E,0,625,72303,8,03-26-2015,13:46:46
12070,25,A,C,0,348,71153,8,03-26-2015,13:46:46
12070,26,E,B,0,249,70287,8,03-26-2015,13:46:46
12070,27,C,D,0,202,69504,8,03-26-2015,13:46:46
12070,28,B,A,0,244,68771,8,03-26-2015,13:46:46
12070,29,C,E,0,326,68004,8,03-26-2015,13:46:46
12070,30,A,B,0,196,67154,8,03-26-2015,13:46:46
12071,1,A,A,1,7666,420000,20,03-11-2015,15:46:49
12071,2,E,E,1,11611,411720,20,03-11-2015,15:46:49
12071,3,D,D,1,11712,399573,20,03-11-2015,15:46:49
12071,4,B,B,1,9449,387327,20,03-11-2015,15:46:49
12071,5,D,D,1,12083,377347,20,03-11-2015,15:46:49
12071,6,D,D,1,11750,364734,20,03-11-2015,15:46:49
12071,7,C,C,1,20165,352455,20,03-11-2015,15:46:49
12071,8,C,C,1,19446,331761,20,03-11-2015,15:46:49
12071,9,B,C,0,14052,311784,20,03-11-2015,15:46:49
12071,10,D,D,1,14856,297205,20,03-11-2015,15:46:49
12071,11,C,C,1,7820,281827,20,03-11-2015,15:46:49
12071,12,B,B,1,9913,273479,20,03-11-2015,15:46:49
12071,13,B,E,0,17736,263033,20,03-11-2015,15:46:49
12071,14,B,B,1,12178,244772,20,03-11-2015,15:46:49
12071,15,D,D,1,30712,232059,20,03-11-2015,15:46:49
12071,16,E,E,1,45956,200819,20,03-11-2015,15:46:49
12071,17,E,E,1,25421,154332,20,03-11-2015,15:46:49
12071,18,E,E,1,19541,128392,20,03-11-2015,15:46:49
12071,19,D,D,1,29510,108314,20,03-11-2015,15:46:49
12071,20,E,C,0,25459,78274,20,03-11-2015,15:46:49
12071,21,A,A,1,8771,52282,20,03-11-2015,15:46:49
12071,22,B,B,1,11056,42985,20,03-11-2015,15:46:49
12071,23,D,D,1,17980,31405,20,03-11-2015,15:46:49
12072,1,A,A,1,14002,420000,16,03-09-2015,09:28:52
12072,2,E,E,1,11049,405388,16,03-09-2015,09:28:52
12072,3,D,D,1,18908,393808,16,03-09-2015,09:28:52
12072,4,B,B,1,9031,374364,16,03-09-2015,09:28:52
12072,5,D,D,1,14778,364799,16,03-09-2015,09:28:52
12072,6,D,D,1,8930,349488,16,03-09-2015,09:28:52
12072,7,C,E,0,33431,340025,16,03-09-2015,09:28:52
12072,8,C,C,1,19866,306068,16,03-09-2015,09:28:52
12072,9,B,B,1,16783,285675,16,03-09-2015,09:28:52
12072,10,D,D,1,19014,268363,16,03-09-2015,09:28:52
12072,11,C,C,1,27237,248819,16,03-09-2015,09:28:52
12072,12,B,B,1,18253,221061,16,03-09-2015,09:28:52
12072,13,B,B,1,12298,202283,16,03-09-2015,09:28:52
12072,14,B,B,1,20212,189454,16,03-09-2015,09:28:52
12072,15,D,C,0,42729,168710,16,03-09-2015,09:28:52
12072,16,E,E,1,15794,125457,16,03-09-2015,09:28:52
12072,17,E,E,1,15433,109129,16,03-09-2015,09:28:52
12072,18,E,B,0,24245,93167,16,03-09-2015,09:28:52
12072,19,D,B,0,38771,68391,16,03-09-2015,09:28:52
12072,20,E,E,1,7802,29086,16,03-09-2015,09:28:52
12072,21,A,E,0,14414,20756,16,03-09-2015,09:28:52
12076,1,A,A,1,7173,420000,24,04-10-2015,15:11:25
12076,2,E,E,1,10362,412219,24,04-10-2015,15:11:25
12076,3,D,D,1,13465,401322,24,04-10-2015,15:11:25
12076,4,B,B,1,20676,387326,24,04-10-2015,15:11:25
12076,5,D,D,1,7313,366116,24,04-10-2015,15:11:25
12076,6,D,D,1,10297,358268,24,04-10-2015,15:11:25
12076,7,C,C,1,15018,347438,24,04-10-2015,15:11:25
12076,8,C,C,1,11791,331893,24,04-10-2015,15:11:25
12076,9,B,B,1,10589,319580,24,04-10-2015,15:11:25
12076,10,D,D,1,17211,308467,24,04-10-2015,15:11:25
12076,11,C,C,1,31824,290722,24,04-10-2015,15:11:25
12076,12,B,B,1,9291,258365,24,04-10-2015,15:11:25
12076,13,B,B,1,19820,248551,24,04-10-2015,15:11:25
12076,14,B,B,1,6836,228207,24,04-10-2015,15:11:25
12076,15,D,D,1,28877,220843,24,04-10-2015,15:11:25
12076,16,E,E,1,21684,191435,24,04-10-2015,15:11:25
12076,17,E,E,1,18761,169225,24,04-10-2015,15:11:25
12076,18,E,E,1,24961,149931,24,04-10-2015,15:11:25
12076,19,D,D,1,13324,124438,24,04-10-2015,15:11:25
12076,20,E,C,0,29260,110592,24,04-10-2015,15:11:25
12076,21,A,A,1,13812,80801,24,04-10-2015,15:11:25
12076,22,B,B,1,25969,66456,24,04-10-2015,15:11:25
12076,23,D,D,1,17836,39964,24,04-10-2015,15:11:25
12076,24,A,A,1,6290,21602,24,04-10-2015,15:11:25
12076,25,A,A,1,10803,14788,24,04-10-2015,15:11:25
12078,1,A,A,1,9357,420000,19,04-20-2015,12:13:53
12078,2,E,E,1,11284,410036,19,04-20-2015,12:13:53
12078,3,D,D,1,9478,398223,19,04-20-2015,12:13:53
12078,4,B,B,1,6545,388225,19,04-20-2015,12:13:53
12078,5,D,D,1,5520,381161,19,04-20-2015,12:13:53
12078,6,D,D,1,11559,375113,19,04-20-2015,12:13:53
12078,7,C,C,1,15302,363033,19,04-20-2015,12:13:53
12078,8,C,C,1,12600,347205,19,04-20-2015,12:13:53
12078,9,B,B,1,8671,334075,19,04-20-2015,12:13:53
12078,10,D,D,1,7313,324878,19,04-20-2015,12:13:53
12078,11,C,A,0,10401,317030,19,04-20-2015,12:13:53
12078,12,B,B,1,8238,306100,19,04-20-2015,12:13:53
12078,13,B,B,1,11330,297336,19,04-20-2015,12:13:53
12078,14,B,C,0,24337,285473,19,04-20-2015,12:13:53
12078,15,D,D,1,4933,260614,19,04-20-2015,12:13:53
12078,16,E,E,1,10555,255149,19,04-20-2015,12:13:53
12078,17,E,E,1,18802,244068,19,04-20-2015,12:13:53
12078,18,E,E,1,22313,224741,19,04-20-2015,12:13:53
12078,19,D,E,0,8605,201898,19,04-20-2015,12:13:53
12078,20,E,E,1,3163,192767,19,04-20-2015,12:13:53
12078,21,A,D,0,10271,189085,19,04-20-2015,12:13:53
12078,22,B,B,1,12027,178288,19,04-20-2015,12:13:53
12078,23,D,C,0,6511,165742,19,04-20-2015,12:13:53
12078,24,A,D,0,2535,158694,19,04-20-2015,12:13:53
12078,25,A,C,0,3550,155628,19,04-20-2015,12:13:53
12078,26,E,B,0,3851,151546,19,04-20-2015,12:13:53
12078,27,C,C,1,15748,147164,19,04-20-2015,12:13:53
12078,28,B,C,0,14157,130885,19,04-20-2015,12:13:53
12078,29,C,E,0,5165,116206,19,04-20-2015,12:13:53
12078,30,A,B,0,2251,110508,19,04-20-2015,12:13:53
12080,1,A,A,1,6011,420000,22,03-31-2015,13:13:35
12080,2,E,E,1,13679,413369,22,03-31-2015,13:13:35
12080,3,D,D,1,9306,399157,22,03-31-2015,13:13:35
12080,4,B,B,1,5660,389326,22,03-31-2015,13:13:35
12080,5,D,D,1,7357,383144,22,03-31-2015,13:13:35
12080,6,D,D,1,25987,375264,22,03-31-2015,13:13:35
12080,7,C,C,1,21772,348755,22,03-31-2015,13:13:35
12080,8,C,C,1,15293,326445,22,03-31-2015,13:13:35
12080,9,B,B,1,11080,310616,22,03-31-2015,13:13:35
12080,10,D,D,1,23769,299003,22,03-31-2015,13:13:35
12080,11,C,C,1,18259,274710,22,03-31-2015,13:13:35
12080,12,B,B,1,17528,255915,22,03-31-2015,13:13:35
12080,13,B,B,1,18226,237854,22,03-31-2015,13:13:35
12080,14,B,B,1,23280,219093,22,03-31-2015,13:13:35
12080,15,D,D,1,26036,195283,22,03-31-2015,13:13:35
12080,16,E,E,1,18340,168725,22,03-31-2015,13:13:35
12080,17,E,E,1,37076,149847,22,03-31-2015,13:13:35
12080,18,E,E,1,13230,112241,22,03-31-2015,13:13:35
12080,19,D,D,1,14722,98479,22,03-31-2015,13:13:35
12080,20,E,E,1,18380,83233,22,03-31-2015,13:13:35
12080,21,A,A,1,25148,64322,22,03-31-2015,13:13:35
12081,1,A,A,1,19662,420000,20,03-26-2015,09:13:26
12081,2,E,E,1,7844,399722,20,03-26-2015,09:13:26
12081,3,D,D,1,14287,391358,20,03-26-2015,09:13:26
12081,4,B,B,1,10729,376546,20,03-26-2015,09:13:26
12081,5,D,D,1,15793,365283,20,03-26-2015,09:13:26
12081,6,D,D,1,15264,348954,20,03-26-2015,09:13:26
12081,7,C,C,1,24515,333159,20,03-26-2015,09:13:26
12081,8,C,C,1,12160,308116,20,03-26-2015,09:13:26
12081,9,B,B,1,11376,295436,20,03-26-2015,09:13:26
12081,10,D,D,1,37181,283540,20,03-26-2015,09:13:26
12081,11,C,C,1,29538,245835,20,03-26-2015,09:13:26
12081,12,B,B,1,17631,215777,20,03-26-2015,09:13:26
12081,13,B,B,1,19508,197615,20,03-26-2015,09:13:26
12081,14,B,B,1,21623,177571,20,03-26-2015,09:13:26
12081,15,D,D,1,35989,155428,20,03-26-2015,09:13:26
12081,16,E,E,1,20018,118905,20,03-26-2015,09:13:26
12081,17,E,E,1,12321,98361,20,03-26-2015,09:13:26
12081,18,E,E,1,21146,85515,20,03-26-2015,09:13:26
12081,19,D,D,1,18788,63838,20,03-26-2015,09:13:26
12081,20,E,E,1,13708,44527,20,03-26-2015,09:13:26
12083,1,A,A,1,6039,420000,18,04-02-2015,13:20:54
12083,2,E,E,1,9513,413352,18,04-02-2015,13:20:54
12083,3,D,D,1,18097,403305,18,04-02-2015,13:20:54
12083,4,B,B,1,8669,384677,18,04-02-2015,13:20:54
12083,5,D,D,1,8383,375480,18,04-02-2015,13:20:54
12083,6,D,D,1,21900,366566,18,04-02-2015,13:20:54
12083,7,C,C,1,29976,344139,18,04-02-2015,13:20:54
12083,8,C,C,1,21563,313631,18,04-02-2015,13:20:54
12083,9,B,B,1,13004,291538,18,04-02-2015,13:20:54
12083,10,D,D,1,37033,278009,18,04-02-2015,13:20:54
12083,11,C,C,1,23524,240453,18,04-02-2015,13:20:54
12083,12,B,E,0,16841,216410,18,04-02-2015,13:20:54
12083,13,B,B,1,43788,199048,18,04-02-2015,13:20:54
12083,14,B,B,1,7491,154728,18,04-02-2015,13:20:54
12083,15,D,D,1,14548,146714,18,04-02-2015,13:20:54
12083,16,E,E,1,12653,131635,18,04-02-2015,13:20:54
12083,17,E,E,1,9880,118456,18,04-02-2015,13:20:54
12083,18,E,D,0,27273,108042,18,04-02-2015,13:20:54
12083,19,D,D,1,14575,80234,18,04-02-2015,13:20:54
12083,20,E,B,0,4424,65138,18,04-02-2015,13:20:54
12083,21,A,E,0,10307,60190,18,04-02-2015,13:20:54
12083,22,B,D,0,40122,49360,18,04-02-2015,13:20:54
12084,1,A,A,1,6556,420000,21,03-26-2015,15:53:41
12084,2,E,E,1,4019,412836,21,03-26-2015,15:53:41
12084,3,D,D,1,19198,408287,21,03-26-2015,15:53:41
12084,4,B,B,1,15869,388560,21,03-26-2015,15:53:41
12084,5,D,D,1,6009,372164,21,03-26-2015,15:53:41
12084,6,D,D,1,13084,365633,21,03-26-2015,15:53:41
12084,7,C,A,0,22167,352020,21,03-26-2015,15:53:41
12084,8,C,C,1,14905,329327,21,03-26-2015,15:53:41
12084,9,B,B,1,12276,313898,21,03-26-2015,15:53:41
12084,10,D,D,1,17742,301102,21,03-26-2015,15:53:41
12084,11,C,C,1,12912,282840,21,03-26-2015,15:53:41
12084,12,B,B,1,11481,269395,21,03-26-2015,15:53:41
12084,13,B,B,1,14291,257382,21,03-26-2015,15:53:41
12084,14,B,B,1,7359,242569,21,03-26-2015,15:53:41
12084,15,D,D,1,30540,234688,21,03-26-2015,15:53:41
12084,16,E,E,1,25840,203614,21,03-26-2015,15:53:41
12084,17,E,E,1,24135,177239,21,03-26-2015,15:53:41
12084,18,E,E,1,17155,152579,21,03-26-2015,15:53:41
12084,19,D,D,1,7612,134901,21,03-26-2015,15:53:41
12084,20,E,E,1,65734,126770,21,03-26-2015,15:53:41
12084,21,A,A,1,8493,60506,21,03-26-2015,15:53:41
12084,22,B,B,1,50468,51492,21,03-26-2015,15:53:41
12086,1,A,A,1,8949,420000,17,03-30-2015,14:10:49
12086,2,E,E,1,6803,410420,17,03-30-2015,14:10:49
12086,3,D,D,1,19575,403089,17,03-30-2015,14:10:49
12086,4,B,B,1,4545,382978,17,03-30-2015,14:10:49
12086,5,D,D,1,4558,377912,17,03-30-2015,14:10:49
12086,6,D,D,1,16173,372831,17,03-30-2015,14:10:49
12086,7,C,C,1,13740,356136,17,03-30-2015,14:10:49
12086,8,C,D,0,15141,341874,17,03-30-2015,14:10:49
12086,9,B,B,1,9814,326211,17,03-30-2015,14:10:49
12086,10,D,D,1,28114,315865,17,03-30-2015,14:10:49
12086,11,C,C,1,26510,287223,17,03-30-2015,14:10:49
12086,12,B,B,1,10083,260181,17,03-30-2015,14:10:49
12086,13,B,B,1,12854,249567,17,03-30-2015,14:10:49
12086,14,B,B,1,7058,236188,17,03-30-2015,14:10:49
12086,15,D,D,1,33370,228607,17,03-30-2015,14:10:49
12086,16,E,E,1,23855,194700,17,03-30-2015,14:10:49
12086,17,E,E,1,42860,170324,17,03-30-2015,14:10:49
12086,18,E,E,1,13928,126937,17,03-30-2015,14:10:49
12086,19,D,B,0,44495,112475,17,03-30-2015,14:10:49
12087,1,A,A,1,8228,420000,20,04-02-2015,09:10:57
12087,2,E,E,1,19327,411168,20,04-02-2015,09:10:57
12087,3,D,D,1,9698,391308,20,04-02-2015,09:10:57
12087,4,B,B,1,9714,381078,20,04-02-2015,09:10:57
12087,5,D,D,1,3267,370831,20,04-02-2015,09:10:57
12087,6,D,D,1,13859,367032,20,04-02-2015,09:10:57
12087,7,C,C,1,23919,352636,20,04-02-2015,09:10:57
12087,8,C,C,1,15059,328193,20,04-02-2015,09:10:57
12087,9,B,B,1,18455,312598,20,04-02-2015,09:10:57
12087,10,D,D,1,44210,293620,20,04-02-2015,09:10:57
12087,11,C,C,1,44391,248884,20,04-02-2015,09:10:57
12087,12,B,B,1,21710,203963,20,04-02-2015,09:10:57
12087,13,B,B,1,12554,181720,20,04-02-2015,09:10:57
12087,14,B,B,1,12057,168641,20,04-02-2015,09:10:57
12087,15,D,D,1,27259,156061,20,04-02-2015,09:10:57
12087,16,E,E,1,16315,128269,20,04-02-2015,09:10:57
12087,17,E,E,1,18173,111424,20,04-02-2015,09:10:57
12087,18,E,E,1,27077,92730,20,04-02-2015,09:10:57
12087,19,D,D,1,9172,65121,20,04-02-2015,09:10:57
12087,20,E,E,1,12266,55424,20,04-02-2015,09:10:57
12089,1,A,A,1,6738,420000,17,03-26-2015,16:14:16
12089,2,E,E,1,7618,412652,17,03-26-2015,16:14:16
12089,3,D,D,1,24147,404505,17,03-26-2015,16:14:16
12089,4,B,B,1,7439,379829,17,03-26-2015,16:14:16
12089,5,D,D,1,3987,371863,17,03-26-2015,16:14:16
12089,6,D,D,1,45973,367349,17,03-26-2015,16:14:16
12089,7,C,C,1,26316,320846,17,03-26-2015,16:14:16
12089,8,C,C,1,13162,294004,17,03-26-2015,16:14:16
12089,9,B,C,0,30192,280308,17,03-26-2015,16:14:16
12089,10,D,D,1,33505,249584,17,03-26-2015,16:14:16
12089,11,C,C,1,53678,215543,17,03-26-2015,16:14:16
12089,12,B,B,1,15101,161343,17,03-26-2015,16:14:16
12089,13,B,B,1,13775,145715,17,03-26-2015,16:14:16
12089,14,B,B,1,20374,131419,17,03-26-2015,16:14:16
12089,15,D,D,1,21855,110525,17,03-26-2015,16:14:16
12089,16,E,E,1,24805,88148,17,03-26-2015,16:14:16
12089,17,E,E,1,20542,62822,17,03-26-2015,16:14:16
12089,18,E,E,1,38143,41745,17,03-26-2015,16:14:16
12092,1,A,D,0,37134,420000,19,03-30-2015,09:22:53
12092,2,E,E,1,18294,382261,19,03-30-2015,09:22:53
12092,3,D,D,1,15937,363433,19,03-30-2015,09:22:53
12092,4,B,B,1,20425,346972,19,03-30-2015,09:22:53
12092,5,D,D,1,7049,326011,19,03-30-2015,09:22:53
12092,6,D,D,1,17139,318430,19,03-30-2015,09:22:53
12092,7,C,C,1,20460,300769,19,03-30-2015,09:22:53
12092,8,C,C,1,17081,279775,19,03-30-2015,09:22:53
12092,9,B,B,1,11861,262163,19,03-30-2015,09:22:53
12092,10,D,D,1,12615,249767,19,03-30-2015,09:22:53
12092,11,C,C,1,12796,236621,19,03-30-2015,09:22:53
12092,12,B,B,1,26970,223291,19,03-30-2015,09:22:53
12092,13,B,B,1,17773,195800,19,03-30-2015,09:22:53
12092,14,B,B,1,9685,177488,19,03-30-2015,09:22:53
12092,15,D,D,1,31141,167275,19,03-30-2015,09:22:53
12092,16,E,E,1,19586,135601,19,03-30-2015,09:22:53
12092,17,E,E,1,19258,115490,19,03-30-2015,09:22:53
12092,18,E,E,1,30246,95696,19,03-30-2015,09:22:53
12092,19,D,D,1,20295,64922,19,03-30-2015,09:22:53
12092,20,E,E,1,13203,44094,19,03-30-2015,09:22:53
12092,21,A,E,0,24793,30365,19,03-30-2015,09:22:53
12094,1,A,A,1,4516,420000,16,03-19-2015,14:08:28
12094,2,E,E,1,280,414868,16,03-19-2015,14:08:28
12094,3,D,D,1,11319,410952,16,03-19-2015,14:08:28
12094,4,B,B,1,6160,399106,16,03-19-2015,14:08:28
12094,5,D,D,1,6766,392424,16,03-19-2015,14:08:28
12094,6,D,D,1,53945,385127,16,03-19-2015,14:08:28
12094,7,C,C,1,24757,330659,16,03-19-2015,14:08:28
12094,8,C,C,1,44279,305382,16,03-19-2015,14:08:28
12094,9,B,B,1,17146,260580,16,03-19-2015,14:08:28
12094,10,D,D,1,26890,242901,16,03-19-2015,14:08:28
12094,11,C,C,1,24032,215475,16,03-19-2015,14:08:28
12094,12,B,B,1,21943,190917,16,03-19-2015,14:08:28
12094,13,B,A,0,26112,168440,16,03-19-2015,14:08:28
12094,14,B,B,1,11885,141798,16,03-19-2015,14:08:28
12094,15,D,D,1,50006,129384,16,03-19-2015,14:08:28
12094,16,E,E,1,47900,78849,16,03-19-2015,14:08:28
12094,17,E,E,1,17415,30413,16,03-19-2015,14:08:28
12095,1,A,A,1,7787,420000,24,03-25-2015,13:10:18
12095,2,E,E,1,3017,411602,24,03-25-2015,13:10:18
12095,3,D,D,1,10299,408054,24,03-25-2015,13:10:18
12095,4,B,B,1,8269,397223,24,03-25-2015,13:10:18
12095,5,D,D,1,4040,388425,24,03-25-2015,13:10:18
12095,6,D,D,1,15417,383861,24,03-25-2015,13:10:18
12095,7,C,C,1,17430,367916,24,03-25-2015,13:10:18
12095,8,C,C,1,26788,349954,24,03-25-2015,13:10:18
12095,9,B,B,1,18014,322646,24,03-25-2015,13:10:18
12095,10,D,D,1,25100,304102,24,03-25-2015,13:10:18
12095,11,C,C,1,7698,278476,24,03-25-2015,13:10:18
12095,12,B,B,1,12138,270245,24,03-25-2015,13:10:18
12095,13,B,B,1,17194,257582,24,03-25-2015,13:10:18
12095,14,B,B,1,4938,239854,24,03-25-2015,13:10:18
12095,15,D,D,1,21440,234389,24,03-25-2015,13:10:18
12095,16,E,E,1,12671,212429,24,03-25-2015,13:10:18
12095,17,E,E,1,6490,199233,24,03-25-2015,13:10:18
12095,18,E,E,1,23130,192219,24,03-25-2015,13:10:18
12095,19,D,D,1,11694,168559,24,03-25-2015,13:10:18
12095,20,E,E,1,6704,156346,24,03-25-2015,13:10:18
12095,21,A,E,0,32719,149115,24,03-25-2015,13:10:18
12095,22,B,B,1,15942,115875,24,03-25-2015,13:10:18
12095,23,D,D,1,14535,99412,24,03-25-2015,13:10:18
12095,24,A,A,1,15648,84351,24,03-25-2015,13:10:18
12095,25,A,A,1,16244,68173,24,03-25-2015,13:10:18
12095,26,E,B,0,27880,51395,24,03-25-2015,13:10:18
12096,1,A,A,1,23815,420000,12,03-19-2015,13:41:07
12096,2,E,E,1,5263,395558,12,03-19-2015,13:41:07
12096,3,D,D,1,23656,389759,12,03-19-2015,13:41:07
12096,4,B,B,1,12967,365583,12,03-19-2015,13:41:07
12096,5,D,D,1,5623,352087,12,03-19-2015,13:41:07
12096,6,D,C,0,15642,345939,12,03-19-2015,13:41:07
12096,7,C,E,0,31334,329777,12,03-19-2015,13:41:07
12096,8,C,D,0,40857,297920,12,03-19-2015,13:41:07
12096,9,B,B,1,20101,256532,12,03-19-2015,13:41:07
12096,10,D,D,1,8489,235905,12,03-19-2015,13:41:07
12096,11,C,B,0,39401,226891,12,03-19-2015,13:41:07
12096,12,B,B,1,24021,186953,12,03-19-2015,13:41:07
12096,13,B,E,0,18661,162410,12,03-19-2015,13:41:07
12096,14,B,E,0,33497,143216,12,03-19-2015,13:41:07
12096,15,D,C,0,20121,109192,12,03-19-2015,13:41:07
12096,16,E,E,1,9308,88548,12,03-19-2015,13:41:07
12096,17,E,E,1,10405,78718,12,03-19-2015,13:41:07
12096,18,E,C,0,8698,67788,12,03-19-2015,13:41:07
12096,19,D,D,1,27770,58557,12,03-19-2015,13:41:07
12096,20,E,C,0,6918,30266,12,03-19-2015,13:41:07
12096,21,A,A,1,14269,22818,12,03-19-2015,13:41:07
12097,1,A,A,1,6516,420000,18,10-02-2015,12:12:13
12097,2,E,E,1,11819,412869,18,10-02-2015,12:12:13
12097,3,D,D,1,11552,400523,18,10-02-2015,12:12:13
12097,4,B,B,1,7928,388443,18,10-02-2015,12:12:13
12097,5,D,D,1,3689,379994,18,10-02-2015,12:12:13
12097,6,D,D,1,18184,375780,18,10-02-2015,12:12:13
12097,7,C,C,1,20208,357069,18,10-02-2015,12:12:13
12097,8,C,C,1,19367,336325,18,10-02-2015,12:12:13
12097,9,B,B,1,12040,316431,18,10-02-2015,12:12:13
12097,10,D,D,1,29179,303868,18,10-02-2015,12:12:13
12097,11,C,C,1,24941,274160,18,10-02-2015,12:12:13
12097,12,B,B,1,24441,248685,18,10-02-2015,12:12:13
12097,13,B,B,1,27815,223709,18,10-02-2015,12:12:13
12097,14,B,B,1,6433,195368,18,10-02-2015,12:12:13
12097,15,D,D,1,71960,188403,18,10-02-2015,12:12:13
12097,16,E,E,1,19392,115909,18,10-02-2015,12:12:13
12097,17,E,E,1,17015,95981,18,10-02-2015,12:12:13
12097,18,E,E,1,50339,78437,18,10-02-2015,12:12:13
12098,1,A,A,1,11709,420000,23,04-16-2015,15:12:48
12098,2,E,E,1,6183,407687,23,04-16-2015,15:12:48
12098,3,D,D,1,11715,400973,23,04-16-2015,15:12:48
12098,4,B,B,1,7773,388727,23,04-16-2015,15:12:48
12098,5,D,D,1,6275,380429,23,04-16-2015,15:12:48
12098,6,D,D,1,8589,373631,23,04-16-2015,15:12:48
12098,7,C,C,1,10210,364517,23,04-16-2015,15:12:48
12098,8,C,C,1,14135,353787,23,04-16-2015,15:12:48
12098,9,B,C,0,14456,339125,23,04-16-2015,15:12:48
12098,10,D,D,1,16683,324147,23,04-16-2015,15:12:48
12098,11,C,D,0,16967,306934,23,04-16-2015,15:12:48
12098,12,B,B,1,9511,289441,23,04-16-2015,15:12:48
12098,13,B,B,1,16127,279394,23,04-16-2015,15:12:48
12098,14,B,B,1,6786,262732,23,04-16-2015,15:12:48
12098,15,D,D,1,19581,255418,23,04-16-2015,15:12:48
12098,16,E,E,1,17686,235307,23,04-16-2015,15:12:48
12098,17,E,E,1,14690,217096,23,04-16-2015,15:12:48
12098,18,E,E,1,16277,201884,23,04-16-2015,15:12:48
12098,19,D,D,1,9192,185073,23,04-16-2015,15:12:48
12098,20,E,E,1,23213,175359,23,04-16-2015,15:12:48
12098,21,A,E,0,7726,151617,23,04-16-2015,15:12:48
12098,22,B,B,1,38308,143369,23,04-16-2015,15:12:48
12098,23,D,D,1,8933,104531,23,04-16-2015,15:12:48
12098,24,A,A,1,3709,95067,23,04-16-2015,15:12:48
12098,25,A,C,0,14964,90835,23,04-16-2015,15:12:48
12098,26,E,E,1,11020,75340,23,04-16-2015,15:12:48
12098,27,C,C,1,12712,63794,23,04-16-2015,15:12:48
12098,28,B,D,0,18321,50548,23,04-16-2015,15:12:48
12098,29,C,E,0,380,31704,23,04-16-2015,15:12:48
12098,30,A,D,0,9944,19724,23,04-16-2015,15:12:48
12101,1,A,A,1,15868,420000,14,10-01-2015,16:13:41
12101,2,E,E,1,8161,403521,14,10-01-2015,16:13:41
12101,3,D,E,0,23767,394840,14,10-01-2015,16:13:41
12101,4,B,B,1,10033,370546,14,10-01-2015,16:13:41
12101,5,D,D,1,6181,359983,14,10-01-2015,16:13:41
12101,6,D,D,1,42569,353268,14,10-01-2015,16:13:41
12101,7,C,C,1,26503,310162,14,10-01-2015,16:13:41
12101,8,C,C,1,35955,283119,14,10-01-2015,16:13:41
12101,9,B,B,1,14800,246629,14,10-01-2015,16:13:41
12101,10,D,D,1,28782,231299,14,10-01-2015,16:13:41
12101,11,C,C,1,84951,201990,14,10-01-2015,16:13:41
12101,12,B,B,1,20025,116513,14,10-01-2015,16:13:41
12101,13,B,B,1,14889,95968,14,10-01-2015,16:13:41
12101,14,B,B,1,6059,80555,14,10-01-2015,16:13:41
12101,15,D,D,1,28733,73974,14,10-01-2015,16:13:41
12102,1,A,A,1,13778,420000,18,03-26-2015,10:53:15
12102,2,E,E,1,3898,405604,18,03-26-2015,10:53:15
12102,3,D,D,1,13137,401172,18,03-26-2015,10:53:15
12102,4,B,B,1,11169,387509,18,03-26-2015,10:53:15
12102,5,D,D,1,5440,375813,18,03-26-2015,10:53:15
12102,6,D,D,1,32730,369848,18,03-26-2015,10:53:15
12102,7,C,C,1,20224,336591,18,03-26-2015,10:53:15
12102,8,C,C,1,25118,315847,18,03-26-2015,10:53:15
12102,9,B,B,1,12650,290205,18,03-26-2015,10:53:15
12102,10,D,D,1,37781,277025,18,03-26-2015,10:53:15
12102,11,C,C,1,75464,238720,18,03-26-2015,10:53:15
12102,12,B,B,1,28875,162726,18,03-26-2015,10:53:15
12102,13,B,B,1,21250,133318,18,03-26-2015,10:53:15
12102,14,B,B,1,7057,111541,18,03-26-2015,10:53:15
12102,15,D,D,1,26362,103960,18,03-26-2015,10:53:15
12102,16,E,E,1,23484,77068,18,03-26-2015,10:53:15
12102,17,E,E,1,16698,53058,18,03-26-2015,10:53:15
12102,18,E,D,0,19445,35830,18,03-26-2015,10:53:15
12103,1,A,A,1,10964,420000,9,03-27-2015,09:43:37
12103,2,E,E,1,35393,408420,9,03-27-2015,09:43:37
12103,3,D,D,1,28036,372497,9,03-27-2015,09:43:37
12103,4,B,B,1,10830,343939,9,03-27-2015,09:43:37
12103,5,D,D,1,10850,332575,9,03-27-2015,09:43:37
12103,6,D,A,0,18717,321195,9,03-27-2015,09:43:37
12103,7,C,E,0,28863,301951,9,03-27-2015,09:43:37
12103,8,C,D,0,23022,272560,9,03-27-2015,09:43:37
12103,9,B,D,0,9518,249017,9,03-27-2015,09:43:37
12103,10,D,B,0,63964,238970,9,03-27-2015,09:43:37
12103,11,C,C,1,34657,174472,9,03-27-2015,09:43:37
12103,12,B,B,1,43160,139283,9,03-27-2015,09:43:37
12103,13,B,A,0,23120,95595,9,03-27-2015,09:43:37
12103,14,B,B,1,6876,71952,9,03-27-2015,09:43:37
12103,15,D,C,0,12310,64555,9,03-27-2015,09:43:37
12103,16,E,E,1,35759,51725,9,03-27-2015,09:43:37
12104,1,A,A,1,41614,420000,12,04-03-2015,15:17:17
12104,2,E,E,1,14388,377779,12,04-03-2015,15:17:17
12104,3,D,D,1,17826,362867,12,04-03-2015,15:17:17
12104,4,B,B,1,70853,344506,12,04-03-2015,15:17:17
12104,5,D,D,1,14161,273126,12,04-03-2015,15:17:17
12104,6,D,D,1,24775,258431,12,04-03-2015,15:17:17
12104,7,C,C,1,40104,233122,12,04-03-2015,15:17:17
12104,8,C,C,1,30192,192484,12,04-03-2015,15:17:17
12104,9,B,B,1,21227,161760,12,04-03-2015,15:17:17
12104,10,D,D,1,65871,139999,12,04-03-2015,15:17:17
12104,11,C,C,1,21617,73602,12,04-03-2015,15:17:17
12104,12,B,B,1,27207,51459,12,04-03-2015,15:17:17
12105,1,A,A,1,25159,420000,13,04-20-2015,16:12:15
12105,2,E,E,1,11545,394225,13,04-20-2015,16:12:15
12105,3,D,D,1,29408,382145,13,04-20-2015,16:12:15
12105,4,B,B,1,35976,352204,13,04-20-2015,16:12:15
12105,5,D,D,1,6359,315698,13,04-20-2015,16:12:15
12105,6,D,A,0,14868,308817,13,04-20-2015,16:12:15
12105,7,C,C,1,43270,293422,13,04-20-2015,16:12:15
12105,8,C,C,1,46823,249618,13,04-20-2015,16:12:15
12105,9,B,B,1,21614,202265,13,04-20-2015,16:12:15
12105,10,D,D,1,68523,180122,13,04-20-2015,16:12:15
12105,11,C,C,1,47153,111059,13,04-20-2015,16:12:15
12105,12,B,B,1,32857,63374,13,04-20-2015,16:12:15
12107,1,A,A,1,8754,420000,9,03-31-2015,13:09:54
12107,2,E,E,1,21288,410636,9,03-31-2015,13:09:54
12107,3,D,D,1,47754,388826,9,03-31-2015,13:09:54
12107,4,B,B,1,8789,340541,9,03-31-2015,13:09:54
12107,5,D,D,1,3130,331228,9,03-31-2015,13:09:54
12107,6,D,E,0,23984,327562,9,03-31-2015,13:09:54
12107,7,C,D,0,12330,303053,9,03-31-2015,13:09:54
12107,8,C,E,0,17129,290190,9,03-31-2015,13:09:54
12107,9,B,D,0,23898,272529,9,03-31-2015,13:09:54
12107,10,D,E,0,4592,248104,9,03-31-2015,13:09:54
12107,11,C,D,0,14828,242989,9,03-31-2015,13:09:54
12107,12,B,E,0,10481,227627,9,03-31-2015,13:09:54
12107,13,B,E,0,16003,216613,9,03-31-2015,13:09:54
12107,14,B,B,1,7194,200085,9,03-31-2015,13:09:54
12107,15,D,A,0,3048,192371,9,03-31-2015,13:09:54
12107,16,E,D,0,11216,188789,9,03-31-2015,13:09:54
12107,17,E,C,0,5926,177042,9,03-31-2015,13:09:54
12107,18,E,C,0,15972,170595,9,03-31-2015,13:09:54
12107,19,D,D,1,9949,154100,9,03-31-2015,13:09:54
12107,20,E,E,1,19771,143620,9,03-31-2015,13:09:54
12107,21,A,D,0,19228,123309,9,03-31-2015,13:09:54
12107,22,B,E,0,31984,103549,9,03-31-2015,13:09:54
12107,23,D,D,1,6958,71042,9,03-31-2015,13:09:54
12107,24,A,D,0,29410,63561,9,03-31-2015,13:09:54
12109,1,A,E,0,16687,420000,7,03-24-2015,12:59:35
12109,2,E,E,1,4443,402705,7,03-24-2015,12:59:35
12109,3,D,D,1,10077,397740,7,03-24-2015,12:59:35
12109,4,B,D,0,6655,387126,7,03-24-2015,12:59:35
12109,5,D,E,0,2969,379945,7,03-24-2015,12:59:35
12109,6,D,C,0,2462,376446,7,03-24-2015,12:59:35
12109,7,C,D,0,2160,373464,7,03-24-2015,12:59:35
12109,8,C,A,0,1518,370781,7,03-24-2015,12:59:35
12109,9,B,B,1,2763,368732,7,03-24-2015,12:59:35
12109,10,D,C,0,2824,365433,7,03-24-2015,12:59:35
12109,11,C,B,0,3771,362084,7,03-24-2015,12:59:35
12109,12,B,B,1,2496,357785,7,03-24-2015,12:59:35
12109,13,B,C,0,2881,354769,7,03-24-2015,12:59:35
12109,14,B,B,1,1888,351353,7,03-24-2015,12:59:35
12109,15,D,D,1,1464,348938,7,03-24-2015,12:59:35
12109,16,E,D,0,1457,346938,7,03-24-2015,12:59:35
12109,17,E,D,0,1346,344956,7,03-24-2015,12:59:35
12109,18,E,B,0,1768,343089,7,03-24-2015,12:59:35
12109,19,D,C,0,1381,340790,7,03-24-2015,12:59:35
12109,20,E,C,0,1001,338890,7,03-24-2015,12:59:35
12109,21,A,B,0,1044,337358,7,03-24-2015,12:59:35
12109,22,B,A,0,1493,335792,7,03-24-2015,12:59:35
12109,23,D,D,1,1165,333776,7,03-24-2015,12:59:35
12109,24,A,C,0,786,332076,7,03-24-2015,12:59:35
12109,25,A,B,0,1333,330760,7,03-24-2015,12:59:35
12109,26,E,C,0,1659,328894,7,03-24-2015,12:59:35
12109,27,C,D,0,1485,326711,7,03-24-2015,12:59:35
12109,28,B,C,0,3140,324695,7,03-24-2015,12:59:35
12109,29,C,B,0,1434,321029,7,03-24-2015,12:59:35
12109,30,A,C,0,1404,319063,7,03-24-2015,12:59:35
12110,1,A,A,1,10534,420000,19,03-24-2015,13:01:51
12110,2,E,E,1,10711,408853,19,03-24-2015,13:01:51
12110,3,D,E,0,13359,397606,19,03-24-2015,13:01:51
12110,4,B,B,1,11207,383727,19,03-24-2015,13:01:51
12110,5,D,D,1,6204,371997,19,03-24-2015,13:01:51
12110,6,D,D,1,15456,365266,19,03-24-2015,13:01:51
12110,7,C,C,1,15981,349288,19,03-24-2015,13:01:51
12110,8,C,D,0,18660,332776,19,03-24-2015,13:01:51
12110,9,B,B,1,12577,313582,19,03-24-2015,13:01:51
12110,10,D,C,0,15584,300486,19,03-24-2015,13:01:51
12110,11,C,C,1,12800,284373,19,03-24-2015,13:01:51
12110,12,B,B,1,13749,271045,19,03-24-2015,13:01:51
12110,13,B,C,0,12621,256766,19,03-24-2015,13:01:51
12110,14,B,B,1,8379,243620,19,03-24-2015,13:01:51
12110,15,D,C,0,14448,234706,19,03-24-2015,13:01:51
12110,16,E,E,1,14036,219728,19,03-24-2015,13:01:51
12110,17,E,E,1,12377,205164,19,03-24-2015,13:01:51
12110,18,E,E,1,9840,192269,19,03-24-2015,13:01:51
12110,19,D,D,1,22658,181906,19,03-24-2015,13:01:51
12110,20,E,A,0,11889,158713,19,03-24-2015,13:01:51
12110,21,A,A,1,10003,146300,19,03-24-2015,13:01:51
12110,22,B,B,1,12872,135770,19,03-24-2015,13:01:51
12110,23,D,D,1,13051,122374,19,03-24-2015,13:01:51
12110,24,A,A,1,18543,108795,19,03-24-2015,13:01:51
12110,25,A,A,1,10625,89717,19,03-24-2015,13:01:51
12110,26,E,B,0,14053,78571,19,03-24-2015,13:01:51
12110,27,C,D,0,11401,63992,19,03-24-2015,13:01:51
12110,28,B,C,0,23318,52061,19,03-24-2015,13:01:51
12110,29,C,E,0,14434,28219,19,03-24-2015,13:01:51
12110,30,A,D,0,11000,13257,19,03-24-2015,13:01:51
12112,1,A,A,1,6062,420000,13,03-23-2015,13:28:29
12112,2,E,E,1,7024,413334,13,03-23-2015,13:28:29
12112,3,D,D,1,10836,405787,13,03-23-2015,13:28:29
12112,4,B,D,0,11640,394424,13,03-23-2015,13:28:29
12112,5,D,D,1,677,382261,13,03-23-2015,13:28:29
12112,6,D,B,0,5645,381061,13,03-23-2015,13:28:29
12112,7,C,D,0,1624,374896,13,03-23-2015,13:28:29
12112,8,C,C,1,698,372747,13,03-23-2015,13:28:29
12112,9,B,C,0,5537,371514,13,03-23-2015,13:28:29
12112,10,D,C,0,848,365449,13,03-23-2015,13:28:29
12112,11,C,C,1,665,364067,13,03-23-2015,13:28:29
12112,12,B,E,0,593,362867,13,03-23-2015,13:28:29
12112,13,B,B,1,749,361751,13,03-23-2015,13:28:29
12112,14,B,B,1,8433,360468,13,03-23-2015,13:28:29
12112,15,D,C,0,1909,351504,13,03-23-2015,13:28:29
12112,16,E,E,1,2925,349071,13,03-23-2015,13:28:29
12112,17,E,E,1,3284,345622,13,03-23-2015,13:28:29
12112,18,E,A,0,2259,341807,13,03-23-2015,13:28:29
12112,19,D,C,0,8869,339024,13,03-23-2015,13:28:29
12112,20,E,C,0,815,329627,13,03-23-2015,13:28:29
12112,21,A,A,1,1285,328277,13,03-23-2015,13:28:29
12112,22,B,E,0,2133,322346,13,03-23-2015,13:28:29
12112,23,D,D,1,2995,319680,13,03-23-2015,13:28:29
12112,24,A,D,0,2408,316164,13,03-23-2015,13:28:29
12112,25,A,C,0,6778,313232,13,03-23-2015,13:28:29
12112,26,E,C,0,18744,305934,13,03-23-2015,13:28:29
12112,27,C,C,1,12385,286657,13,03-23-2015,13:28:29
12112,28,B,E,0,1168,273744,13,03-23-2015,13:28:29
12112,29,C,E,0,5509,272044,13,03-23-2015,13:28:29
12112,30,A,D,0,3116,266013,13,03-23-2015,13:28:29
12113,1,A,A,1,59668,420000,13,03-26-2015,11:24:35
12113,2,E,E,1,5661,359718,13,03-26-2015,11:24:35
12113,3,D,D,1,36325,353536,13,03-26-2015,11:24:35
12113,4,B,B,1,12261,316680,13,03-26-2015,11:24:35
12113,5,D,C,0,1737,303884,13,03-26-2015,11:24:35
12113,6,D,D,1,20133,301618,13,03-26-2015,11:24:35
12113,7,C,D,0,15063,280958,13,03-26-2015,11:24:35
12113,8,C,C,1,16163,265362,13,03-26-2015,11:24:35
12113,9,B,B,1,12292,248667,13,03-26-2015,11:24:35
12113,10,D,D,1,20990,235854,13,03-26-2015,11:24:35
12113,11,C,C,1,9206,214343,13,03-26-2015,11:24:35
12113,12,B,B,1,13051,204613,13,03-26-2015,11:24:35
12113,13,B,B,1,42550,191034,13,03-26-2015,11:24:35
12113,14,B,B,1,27060,147947,13,03-26-2015,11:24:35
12113,15,D,C,0,9907,120355,13,03-26-2015,11:24:35
12113,16,E,C,0,9621,109925,13,03-26-2015,11:24:35
12113,17,E,C,0,2898,99777,13,03-26-2015,11:24:35
12113,18,E,B,0,3801,96345,13,03-26-2015,11:24:35
12113,19,D,B,0,12085,92013,13,03-26-2015,11:24:35
12113,20,E,D,0,14351,79400,13,03-26-2015,11:24:35
12113,21,A,D,0,6991,64521,13,03-26-2015,11:24:35
12113,22,B,D,0,16147,57007,13,03-26-2015,11:24:35
12113,23,D,B,0,1981,40328,13,03-26-2015,11:24:35
12113,24,A,C,0,4265,37813,13,03-26-2015,11:24:35
12113,25,A,D,0,3627,33014,13,03-26-2015,11:24:35
12113,26,E,B,0,3086,28865,13,03-26-2015,11:24:35
12113,27,C,C,1,23388,25250,13,03-26-2015,11:24:35
12115,1,A,A,1,17806,420000,10,03-24-2015,09:26:22
12115,2,E,E,1,9021,401588,10,03-24-2015,09:26:22
12115,3,D,E,0,12082,392041,10,03-24-2015,09:26:22
12115,4,B,A,0,34738,379428,10,03-24-2015,09:26:22
12115,5,D,D,1,10865,344156,10,03-24-2015,09:26:22
12115,6,D,D,1,34882,332759,10,03-24-2015,09:26:22
12115,7,C,C,1,22755,297353,10,03-24-2015,09:26:22
12115,8,C,C,1,49883,274077,10,03-24-2015,09:26:22
12115,9,B,B,1,28047,223659,10,03-24-2015,09:26:22
12115,10,D,D,1,14304,195084,10,03-24-2015,09:26:22
12115,11,C,B,0,42080,180255,10,03-24-2015,09:26:22
12115,12,B,B,1,60288,137651,10,03-24-2015,09:26:22
12115,13,B,E,0,19560,76837,10,03-24-2015,09:26:22
12115,14,B,B,1,21904,56743,10,03-24-2015,09:26:22
12115,15,D,C,0,30372,34316,10,03-24-2015,09:26:22
12116,1,A,A,1,13490,420000,18,03-12-2015,15:08:23
12116,2,E,E,1,5605,405904,18,03-12-2015,15:08:23
12116,3,D,D,1,13864,399773,18,03-12-2015,15:08:23
12116,4,B,B,1,42259,385377,18,03-12-2015,15:08:23
12116,5,D,D,1,7591,342589,18,03-12-2015,15:08:23
12116,6,D,D,1,26547,334475,18,03-12-2015,15:08:23
12116,7,C,C,1,17350,307400,18,03-12-2015,15:08:23
12116,8,C,C,1,14455,289522,18,03-12-2015,15:08:23
12116,9,B,B,1,20803,274543,18,03-12-2015,15:08:23
12116,10,D,D,1,6444,253216,18,03-12-2015,15:08:23
12116,11,C,C,1,12270,246251,18,03-12-2015,15:08:23
12116,12,B,B,1,40368,233455,18,03-12-2015,15:08:23
12116,13,B,B,1,16095,192566,18,03-12-2015,15:08:23
12116,14,B,B,1,14050,175938,18,03-12-2015,15:08:23
12116,15,D,D,1,41285,161359,18,03-12-2015,15:08:23
12116,16,E,E,1,21871,119554,18,03-12-2015,15:08:23
12116,17,E,E,1,35652,97160,18,03-12-2015,15:08:23
12116,18,E,E,1,59139,60972,18,03-12-2015,15:08:23
12117,1,A,A,1,6944,420000,21,04-10-2015,12:43:20
12117,2,E,E,1,3430,412435,21,04-10-2015,12:43:20
12117,3,D,D,1,10016,408470,21,04-10-2015,12:43:20
12117,4,B,B,1,7677,397923,21,04-10-2015,12:43:20
12117,5,D,D,1,3615,389726,21,04-10-2015,12:43:20
12117,6,D,D,1,42512,385577,21,04-10-2015,12:43:20
12117,7,C,C,1,10570,342539,21,04-10-2015,12:43:20
12117,8,C,C,1,18232,331443,21,04-10-2015,12:43:20
12117,9,B,B,1,9494,312682,21,04-10-2015,12:43:20
12117,10,D,D,1,16287,302668,21,04-10-2015,12:43:20
12117,11,C,C,1,26939,285856,21,04-10-2015,12:43:20
12117,12,B,E,0,13335,258398,21,04-10-2015,12:43:20
12117,13,B,B,1,12344,244535,21,04-10-2015,12:43:20
12117,14,B,B,1,4753,231672,21,04-10-2015,12:43:20
12117,15,D,D,1,7702,226390,21,04-10-2015,12:43:20
12117,16,E,E,1,34653,218160,21,04-10-2015,12:43:20
12117,17,E,E,1,21910,182970,21,04-10-2015,12:43:20
12117,18,E,E,1,71703,160527,21,04-10-2015,12:43:20
12117,19,D,D,1,30736,88298,21,04-10-2015,12:43:20
12117,20,E,E,1,17573,57024,21,04-10-2015,12:43:20
12117,21,A,C,0,14326,38929,21,04-10-2015,12:43:20
12117,22,B,B,1,13751,24084,21,04-10-2015,12:43:20
12117,23,D,D,1,5400,9804,21,04-10-2015,12:43:20
12118,1,A,A,1,8281,420000,20,04-09-2015,13:10:26
12118,2,E,E,1,6770,411102,20,04-09-2015,13:10:26
12118,3,D,D,1,8328,403805,20,04-09-2015,13:10:26
12118,4,B,E,0,34623,394957,20,04-09-2015,13:10:26
12118,5,D,D,1,5313,359801,20,04-09-2015,13:10:26
12118,6,D,D,1,17760,353953,20,04-09-2015,13:10:26
12118,7,C,C,1,14257,335658,20,04-09-2015,13:10:26
12118,8,C,C,1,12678,320879,20,04-09-2015,13:10:26
12118,9,B,B,1,15464,307666,20,04-09-2015,13:10:26
12118,10,D,D,1,19436,291671,20,04-09-2015,13:10:26
12118,11,C,C,1,6898,271710,20,04-09-2015,13:10:26
12118,12,B,B,1,12914,264279,20,04-09-2015,13:10:26
12118,13,B,B,1,12676,250833,20,04-09-2015,13:10:26
12118,14,B,B,1,39765,237637,20,04-09-2015,13:10:26
12118,15,D,D,1,36970,197349,20,04-09-2015,13:10:26
12118,16,E,E,1,15032,159843,20,04-09-2015,13:10:26
12118,17,E,E,1,10006,144281,20,04-09-2015,13:10:26
12118,18,E,E,1,25522,133751,20,04-09-2015,13:10:26
12118,19,D,D,1,7991,107709,20,04-09-2015,13:10:26
12118,20,E,E,1,10404,99195,20,04-09-2015,13:10:26
12118,21,A,C,0,52607,88265,20,04-09-2015,13:10:26
12118,22,B,B,1,24863,35130,20,04-09-2015,13:10:26
12119,1,A,A,1,19672,420000,13,03-30-2015,11:16:05
12119,2,E,E,1,6518,399706,13,03-30-2015,11:16:05
12119,3,D,D,1,27892,392658,13,03-30-2015,11:16:05
12119,4,B,B,1,9811,364233,13,03-30-2015,11:16:05
12119,5,D,D,1,5080,353902,13,03-30-2015,11:16:05
12119,6,D,D,1,16033,348288,13,03-30-2015,11:16:05
12119,7,C,C,1,19893,331726,13,03-30-2015,11:16:05
12119,8,C,B,0,29256,311299,13,03-30-2015,11:16:05
12119,9,B,B,1,19616,281508,13,03-30-2015,11:16:05
12119,10,D,D,1,5647,261363,13,03-30-2015,11:16:05
12119,11,C,D,0,14345,255182,13,03-30-2015,11:16:05
12119,12,B,C,0,10673,240303,13,03-30-2015,11:16:05
12119,13,B,D,0,16028,229106,13,03-30-2015,11:16:05
12119,14,B,B,1,10066,212544,13,03-30-2015,11:16:05
12119,15,D,C,0,2748,201947,13,03-30-2015,11:16:05
12119,16,E,B,0,23721,198665,13,03-30-2015,11:16:05
12119,17,E,B,0,8294,174421,13,03-30-2015,11:16:05
12119,18,E,C,0,13703,165608,13,03-30-2015,11:16:05
12119,19,D,B,0,32559,151379,13,03-30-2015,11:16:05
12119,20,E,C,0,4965,118289,13,03-30-2015,11:16:05
12119,21,A,C,0,5130,112790,13,03-30-2015,11:16:05
12119,22,B,E,0,8353,107125,13,03-30-2015,11:16:05
12119,23,D,D,1,3912,98244,13,03-30-2015,11:16:05
12119,24,A,A,1,6287,93812,13,03-30-2015,11:16:05
12119,25,A,B,0,2248,86998,13,03-30-2015,11:16:05
12119,26,E,A,0,786,84215,13,03-30-2015,11:16:05
12119,27,C,C,1,1102,81099,13,03-30-2015,11:16:05
12119,28,B,A,0,509,79467,13,03-30-2015,11:16:05
12119,29,C,B,0,3108,78433,13,03-30-2015,11:16:05
12119,30,A,D,0,5899,74801,13,03-30-2015,11:16:05
12120,1,A,A,1,6469,420000,21,04-21-2015,15:14:15
12120,2,E,E,1,7302,412919,21,04-21-2015,15:14:15
12120,3,D,D,1,9519,405088,21,04-21-2015,15:14:15
12120,4,B,B,1,11695,395041,21,04-21-2015,15:14:15
12120,5,D,D,1,6626,382811,21,04-21-2015,15:14:15
12120,6,D,D,1,9613,375663,21,04-21-2015,15:14:15
12120,7,C,C,1,12529,365516,21,04-21-2015,15:14:15
12120,8,C,C,1,19785,352454,21,04-21-2015,15:14:15
12120,9,B,B,1,20297,332143,21,04-21-2015,15:14:15
12120,10,D,D,1,17756,311316,21,04-21-2015,15:14:15
12120,11,C,C,1,12942,293038,21,04-21-2015,15:14:15
12120,12,B,B,1,15735,279575,21,04-21-2015,15:14:15
12120,13,B,B,1,17656,263314,21,04-21-2015,15:14:15
12120,14,B,B,1,7765,245136,21,04-21-2015,15:14:15
12120,15,D,D,1,33378,236838,21,04-21-2015,15:14:15
12120,16,E,E,1,18222,202932,21,04-21-2015,15:14:15
12120,17,E,E,1,15573,184187,21,04-21-2015,15:14:15
12120,18,E,E,1,32571,168092,21,04-21-2015,15:14:15
12120,19,D,D,1,12272,134985,21,04-21-2015,15:14:15
12120,20,E,D,0,51929,122189,21,04-21-2015,15:14:15
12120,21,A,A,1,28604,69738,21,04-21-2015,15:14:15
12121,1,A,B,0,17633,420000,8,03-25-2015,10:09:29
12121,2,E,E,1,30525,398923,8,03-25-2015,10:09:29
12121,3,D,D,1,25931,367865,8,03-25-2015,10:09:29
12121,4,B,B,1,11999,341406,8,03-25-2015,10:09:29
12121,5,D,B,0,3117,328877,8,03-25-2015,10:09:29
12121,6,D,A,0,1204,325228,8,03-25-2015,10:09:29
12121,7,C,B,0,647,323495,8,03-25-2015,10:09:29
12121,8,C,C,1,2736,322329,8,03-25-2015,10:09:29
12121,9,B,B,1,1278,319063,8,03-25-2015,10:09:29
12121,10,D,B,0,2487,317263,8,03-25-2015,10:09:29
12121,11,C,D,0,1151,314247,8,03-25-2015,10:09:29
12121,12,B,D,0,1660,312565,8,03-25-2015,10:09:29
12121,13,B,E,0,1126,310382,8,03-25-2015,10:09:29
12121,14,B,B,1,1564,308733,8,03-25-2015,10:09:29
12121,15,D,C,0,641,306649,8,03-25-2015,10:09:29
12121,16,E,D,0,2426,305484,8,03-25-2015,10:09:29
12121,17,E,C,0,3045,302534,8,03-25-2015,10:09:29
12121,18,E,C,0,768,298969,8,03-25-2015,10:09:29
12121,19,D,B,0,1324,297669,8,03-25-2015,10:09:29
12121,20,E,C,0,914,295820,8,03-25-2015,10:09:29
12121,21,A,D,0,881,294386,8,03-25-2015,10:09:29
12121,22,B,D,0,1313,292971,8,03-25-2015,10:09:29
12121,23,D,C,0,736,291138,8,03-25-2015,10:09:29
12121,24,A,C,0,398,289871,8,03-25-2015,10:09:29
12121,25,A,D,0,842,288955,8,03-25-2015,10:09:29
12121,26,E,E,1,2267,287589,8,03-25-2015,10:09:29
12121,27,C,D,0,899,284790,8,03-25-2015,10:09:29
12121,28,B,C,0,802,283357,8,03-25-2015,10:09:29
12121,29,C,B,0,877,282024,8,03-25-2015,10:09:29
12121,30,A,A,1,1694,280624,8,03-25-2015,10:09:29
12122,1,A,E,0,23338,420000,8,03-17-2015,14:18:17
12122,2,E,E,1,14126,396057,8,03-17-2015,14:18:17
12122,3,D,D,1,16864,381411,8,03-17-2015,14:18:17
12122,4,B,B,1,35506,364016,8,03-17-2015,14:18:17
12122,5,D,D,1,16337,327977,8,03-17-2015,14:18:17
12122,6,D,D,1,23123,311115,8,03-17-2015,14:18:17
12122,7,C,E,0,26863,287472,8,03-17-2015,14:18:17
12122,8,C,E,0,42492,260080,8,03-17-2015,14:18:17
12122,9,B,E,0,26254,217060,8,03-17-2015,14:18:17
12122,10,D,D,1,26677,190284,8,03-17-2015,14:18:17
12122,11,C,D,0,28514,163076,8,03-17-2015,14:18:17
12122,12,B,C,0,20888,134034,8,03-17-2015,14:18:17
12122,13,B,D,0,30043,112624,8,03-17-2015,14:18:17
12122,14,B,B,1,19132,82049,8,03-17-2015,14:18:17
12122,15,D,D,1,29677,62389,8,03-17-2015,14:18:17
12122,16,E,C,0,25564,32181,8,03-17-2015,14:18:17
12123,1,A,A,1,7930,420000,17,03-17-2015,10:34:43
12123,2,E,E,1,13697,411453,17,03-17-2015,10:34:43
12123,3,D,D,1,34474,397224,17,03-17-2015,10:34:43
12123,4,B,B,1,19731,362218,17,03-17-2015,10:34:43
12123,5,D,D,1,5429,341957,17,03-17-2015,10:34:43
12123,6,D,D,1,69108,335993,17,03-17-2015,10:34:43
12123,7,C,C,1,55459,266348,17,03-17-2015,10:34:43
12123,8,C,C,1,28218,210366,17,03-17-2015,10:34:43
12123,9,B,B,1,17484,181625,17,03-17-2015,10:34:43
12123,10,D,D,1,18263,163614,17,03-17-2015,10:34:43
12123,11,C,C,1,19300,144820,17,03-17-2015,10:34:43
12123,12,B,B,1,21519,124993,17,03-17-2015,10:34:43
12123,13,B,B,1,17251,102950,17,03-17-2015,10:34:43
12123,14,B,B,1,15416,85172,17,03-17-2015,10:34:43
12123,15,D,D,1,30004,69227,17,03-17-2015,10:34:43
12123,16,E,E,1,14855,38704,17,03-17-2015,10:34:43
12123,17,E,E,1,21171,23325,17,03-17-2015,10:34:43
12124,1,A,A,1,9286,420000,17,04-08-2015,16:06:58
12124,2,E,E,1,9567,410103,17,04-08-2015,16:06:58
12124,3,D,D,1,18205,400006,17,04-08-2015,16:06:58
12124,4,B,B,1,9166,381278,17,04-08-2015,16:06:58
12124,5,D,D,1,5428,371581,17,04-08-2015,16:06:58
12124,6,D,D,1,22158,365633,17,04-08-2015,16:06:58
12124,7,C,C,1,18416,342940,17,04-08-2015,16:06:58
12124,8,C,C,1,46437,323995,17,04-08-2015,16:06:58
12124,9,B,B,1,10723,277026,17,04-08-2015,16:06:58
12124,10,D,D,1,15387,265779,17,04-08-2015,16:06:58
12124,11,C,D,0,23226,249867,17,04-08-2015,16:06:58
12124,12,B,B,1,17265,226108,17,04-08-2015,16:06:58
12124,13,B,B,1,36548,208313,17,04-08-2015,16:06:58
12124,14,B,B,1,16786,171241,17,04-08-2015,16:06:58
12124,15,D,D,1,35329,153929,17,04-08-2015,16:06:58
12124,16,E,E,1,38231,118074,17,04-08-2015,16:06:58
12124,17,E,E,1,50209,79318,17,04-08-2015,16:06:58
12124,18,E,E,1,24360,28584,17,04-08-2015,16:06:58
12125,1,A,A,1,12187,420000,20,04-08-2015,15:05:44
12125,2,E,E,1,2697,407188,20,04-08-2015,15:05:44
12125,3,D,D,1,22056,403955,20,04-08-2015,15:05:44
12125,4,B,B,1,11446,381379,20,04-08-2015,15:05:44
12125,5,D,D,1,4290,369398,20,04-08-2015,15:05:44
12125,6,D,D,1,16610,364584,20,04-08-2015,15:05:44
12125,7,C,C,1,14104,347439,20,04-08-2015,15:05:44
12125,8,C,C,1,13426,332810,20,04-08-2015,15:05:44
12125,9,B,B,1,19295,318847,20,04-08-2015,15:05:44
12125,10,D,D,1,31801,299020,20,04-08-2015,15:05:44
12125,11,C,C,1,6629,266695,20,04-08-2015,15:05:44
12125,12,B,B,1,10968,259532,20,04-08-2015,15:05:44
12125,13,B,C,0,32294,248035,20,04-08-2015,15:05:44
12125,14,B,B,1,15989,215212,20,04-08-2015,15:05:44
12125,15,D,D,1,28867,198700,20,04-08-2015,15:05:44
12125,16,E,E,1,13059,169309,20,04-08-2015,15:05:44
12125,17,E,D,0,4831,155713,20,04-08-2015,15:05:44
12125,18,E,D,0,15137,150348,20,04-08-2015,15:05:44
12125,19,D,D,1,26737,134686,20,04-08-2015,15:05:44
12125,20,E,E,1,11006,107427,20,04-08-2015,15:05:44
12125,21,A,A,1,9036,95897,20,04-08-2015,15:05:44
12125,22,B,B,1,7903,86334,20,04-08-2015,15:05:44
12125,23,D,E,0,11248,77902,20,04-08-2015,15:05:44
12125,24,A,E,0,33602,66123,20,04-08-2015,15:05:44
12125,25,A,A,1,17421,32000,20,04-08-2015,15:05:44
12126,1,A,A,1,7790,420000,23,04-07-2015,13:06:18
12126,2,E,E,1,10868,411603,23,04-07-2015,13:06:18
12126,3,D,D,1,10471,400206,23,04-07-2015,13:06:18
12126,4,B,B,1,4546,389209,23,04-07-2015,13:06:18
12126,5,D,D,1,4344,384143,23,04-07-2015,13:06:18
12126,6,D,D,1,10359,379279,23,04-07-2015,13:06:18
12126,7,C,C,1,17022,368399,23,04-07-2015,13:06:18
12126,8,C,C,1,11804,350854,23,04-07-2015,13:06:18
12126,9,B,B,1,8697,338525,23,04-07-2015,13:06:18
12126,10,D,D,1,12939,329294,23,04-07-2015,13:06:18
12126,11,C,C,1,20650,315831,23,04-07-2015,13:06:18
12126,12,B,B,1,18264,294654,23,04-07-2015,13:06:18
12126,13,B,C,0,11165,275860,23,04-07-2015,13:06:18
12126,14,B,B,1,4812,264164,23,04-07-2015,13:06:18
12126,15,D,B,0,8720,258832,23,04-07-2015,13:06:18
12126,16,E,E,1,19311,249585,23,04-07-2015,13:06:18
12126,17,E,D,0,19922,229740,23,04-07-2015,13:06:18
12126,18,E,E,1,15269,209297,23,04-07-2015,13:06:18
12126,19,D,D,1,6770,193501,23,04-07-2015,13:06:18
12126,20,E,E,1,24974,186203,23,04-07-2015,13:06:18
12126,21,A,A,1,4305,160694,23,04-07-2015,13:06:18
12126,22,B,B,1,14936,155863,23,04-07-2015,13:06:18
12126,23,D,D,1,11249,140400,23,04-07-2015,13:06:18
12126,24,A,A,1,7189,128621,23,04-07-2015,13:06:18
12126,25,A,A,1,10602,120906,23,04-07-2015,13:06:18
12126,26,E,E,1,21943,109776,23,04-07-2015,13:06:18
12126,27,C,B,0,19008,87300,23,04-07-2015,13:06:18
12126,28,B,D,0,25392,67771,23,04-07-2015,13:06:18
12126,29,C,D,0,4841,41847,23,04-07-2015,13:06:18
12126,30,A,B,0,6316,36482,23,04-07-2015,13:06:18
12127,1,A,A,1,12842,420000,13,03-19-2015,12:31:56
12127,2,E,E,1,11070,406538,13,03-19-2015,12:31:56
12127,3,D,B,0,16760,394941,13,03-19-2015,12:31:56
12127,4,B,B,1,6953,377646,13,03-19-2015,12:31:56
12127,5,D,D,1,5231,370165,13,03-19-2015,12:31:56
12127,6,D,B,0,21217,364400,13,03-19-2015,12:31:56
12127,7,C,C,1,34104,342656,13,03-19-2015,12:31:56
12127,8,C,C,1,25639,308032,13,03-19-2015,12:31:56
12127,9,B,B,1,10168,281873,13,03-19-2015,12:31:56
12127,10,D,D,1,13198,271177,13,03-19-2015,12:31:56
12127,11,C,C,1,18236,257446,13,03-19-2015,12:31:56
12127,12,B,E,0,23593,238686,13,03-19-2015,12:31:56
12127,13,B,B,1,17826,214560,13,03-19-2015,12:31:56
12127,14,B,B,1,6977,196198,13,03-19-2015,12:31:56
12127,15,D,B,0,40812,188700,13,03-19-2015,12:31:56
12127,16,E,E,1,29577,147362,13,03-19-2015,12:31:56
12127,17,E,E,1,20036,117254,13,03-19-2015,12:31:56
12127,18,E,C,0,43897,96694,13,03-19-2015,12:31:56
12133,1,A,A,1,7878,420000,14,04-06-2015,15:17:50
12133,2,E,E,1,12647,411503,14,04-06-2015,15:17:50
12133,3,D,D,1,14955,398324,14,04-06-2015,15:17:50
12133,4,B,B,1,13611,382845,14,04-06-2015,15:17:50
12133,5,D,D,1,8538,368698,14,04-06-2015,15:17:50
12133,6,D,D,1,17401,359635,14,04-06-2015,15:17:50
12133,7,C,C,1,29711,341707,14,04-06-2015,15:17:50
12133,8,C,C,1,18612,311466,14,04-06-2015,15:17:50
12133,9,B,A,0,13987,292322,14,04-06-2015,15:17:50
12133,10,D,D,1,21321,277810,14,04-06-2015,15:17:50
12133,11,C,C,1,31348,255966,14,04-06-2015,15:17:50
12133,12,B,B,1,36088,224092,14,04-06-2015,15:17:50
12133,13,B,B,1,32791,187470,14,04-06-2015,15:17:50
12133,14,B,A,0,48481,154147,14,04-06-2015,15:17:50
12133,15,D,D,1,58539,105145,14,04-06-2015,15:17:50
12133,16,E,E,1,30479,46079,14,04-06-2015,15:17:50
12134,1,A,A,1,7440,420000,15,03-26-2015,09:13:34
12134,2,E,E,1,6868,411952,15,03-26-2015,09:13:34
12134,3,D,D,1,16501,404555,15,03-26-2015,09:13:34
12134,4,B,B,1,10808,387526,15,03-26-2015,09:13:34
12134,5,D,D,1,5390,376196,15,03-26-2015,09:13:34
12134,6,D,D,1,40633,370281,15,03-26-2015,09:13:34
12134,7,C,A,0,21780,329127,15,03-26-2015,09:13:34
12134,8,C,C,1,23933,306817,15,03-26-2015,09:13:34
12134,9,B,E,0,25600,282357,15,03-26-2015,09:13:34
12134,10,D,D,1,53415,256232,15,03-26-2015,09:13:34
12134,11,C,C,1,8537,202281,15,03-26-2015,09:13:34
12134,12,B,B,1,27687,193217,15,03-26-2015,09:13:34
12134,13,B,A,0,17293,165009,15,03-26-2015,09:13:34
12134,14,B,B,1,9001,147181,15,03-26-2015,09:13:34
12134,15,D,D,1,66547,137650,15,03-26-2015,09:13:34
12134,16,E,E,1,47759,70570,15,03-26-2015,09:13:34
12134,17,E,E,1,22185,22284,15,03-26-2015,09:13:34
12135,1,A,A,1,8439,420000,20,03-19-2015,09:19:43
12135,2,E,E,1,10011,410936,20,03-19-2015,09:19:43
12135,3,D,D,1,14735,400390,20,03-19-2015,09:19:43
12135,4,B,B,1,5344,385127,20,03-19-2015,09:19:43
12135,5,D,D,1,9719,379262,20,03-19-2015,09:19:43
12135,6,D,E,0,27390,369015,20,03-19-2015,09:19:43
12135,7,C,C,1,17464,341090,20,03-19-2015,09:19:43
12135,8,C,C,1,11125,323096,20,03-19-2015,09:19:43
12135,9,B,B,1,11150,311449,20,03-19-2015,09:19:43
12135,10,D,D,1,50075,299769,20,03-19-2015,09:19:43
12135,11,C,C,1,13696,249168,20,03-19-2015,09:19:43
12135,12,B,B,1,16994,234938,20,03-19-2015,09:19:43
12135,13,B,B,1,14649,217410,20,03-19-2015,09:19:43
12135,14,B,B,1,10886,202231,20,03-19-2015,09:19:43
12135,15,D,D,1,31767,190818,20,03-19-2015,09:19:43
12135,16,E,E,1,10947,158528,20,03-19-2015,09:19:43
12135,17,E,E,1,19010,147048,20,03-19-2015,09:19:43
12135,18,E,E,1,14521,127503,20,03-19-2015,09:19:43
12135,19,D,D,1,17130,112458,20,03-19-2015,09:19:43
12135,20,E,E,1,11500,94796,20,03-19-2015,09:19:43
12135,21,A,A,1,47220,82767,20,03-19-2015,09:19:43
12136,1,A,A,1,31050,420000,13,04-13-2015,14:09:05
12136,2,E,E,1,14867,388327,13,04-13-2015,14:09:05
12136,3,D,D,1,20343,372931,13,04-13-2015,14:09:05
12136,4,B,B,1,20121,352054,13,04-13-2015,14:09:05
12136,5,D,D,1,8308,331409,13,04-13-2015,14:09:05
12136,6,D,D,1,62001,322580,13,04-13-2015,14:09:05
12136,7,C,C,1,53883,260048,13,04-13-2015,14:09:05
12136,8,C,C,1,33848,205631,13,04-13-2015,14:09:05
12136,9,B,B,1,18210,171258,13,04-13-2015,14:09:05
12136,10,D,D,1,21055,152514,13,04-13-2015,14:09:05
12136,11,C,C,1,32589,130936,13,04-13-2015,14:09:05
12136,12,B,C,0,34559,97814,13,04-13-2015,14:09:05
12136,13,B,B,1,24829,62724,13,04-13-2015,14:09:05
12136,14,B,B,1,8357,37365,13,04-13-2015,14:09:05
12136,15,D,E,0,25154,28484,13,04-13-2015,14:09:05
12137,1,A,A,1,22319,420000,12,03-20-2015,10:59:51
12137,2,E,E,1,14098,397073,12,03-20-2015,10:59:51
12137,3,D,D,1,27387,382444,12,03-20-2015,10:59:51
12137,4,B,B,1,12662,354535,12,03-20-2015,10:59:51
12137,5,D,D,1,13690,341339,12,03-20-2015,10:59:51
12137,6,D,D,1,38586,327127,12,03-20-2015,10:59:51
12137,7,C,C,1,40239,288005,12,03-20-2015,10:59:51
12137,8,C,C,1,56792,247234,12,03-20-2015,10:59:51
12137,9,B,B,1,31002,189917,12,03-20-2015,10:59:51
12137,10,D,D,1,46339,158393,12,03-20-2015,10:59:51
12137,11,C,C,1,43979,111524,12,03-20-2015,10:59:51
12137,12,B,B,1,20802,67020,12,03-20-2015,10:59:51
12138,1,A,A,1,28677,420000,9,03-23-2015,12:56:17
12138,2,E,E,1,5293,390693,9,03-23-2015,12:56:17
12138,3,D,E,0,63834,384878,9,03-23-2015,12:56:17
12138,4,B,B,1,33812,320515,9,03-23-2015,12:56:17
12138,5,D,D,1,11215,286175,9,03-23-2015,12:56:17
12138,6,D,B,0,44522,274430,9,03-23-2015,12:56:17
12138,7,C,C,1,24460,229377,9,03-23-2015,12:56:17
12138,8,C,C,1,32161,204385,9,03-23-2015,12:56:17
12138,9,B,B,1,27765,171695,9,03-23-2015,12:56:17
12138,10,D,D,1,29983,143404,9,03-23-2015,12:56:17
12138,11,C,D,0,21531,112897,9,03-23-2015,12:56:17
12138,12,B,D,0,18165,90838,9,03-23-2015,12:56:17
12138,13,B,D,0,18974,72144,9,03-23-2015,12:56:17
12138,14,B,B,1,11455,52649,9,03-23-2015,12:56:17
12138,15,D,A,0,32801,40670,9,03-23-2015,12:56:17
12139,1,A,A,1,8851,420000,12,04-01-2015,11:12:13
12139,2,E,E,1,5574,410536,12,04-01-2015,11:12:13
12139,3,D,A,0,13555,404438,12,04-01-2015,11:12:13
12139,4,B,B,1,11779,390358,12,04-01-2015,11:12:13
12139,5,D,D,1,11737,378045,12,04-01-2015,11:12:13
12139,6,D,D,1,33609,365782,12,04-01-2015,11:12:13
12139,7,C,C,1,13364,331643,12,04-01-2015,11:12:13
12139,8,C,D,0,18835,317747,12,04-01-2015,11:12:13
12139,9,B,D,0,11521,298386,12,04-01-2015,11:12:13
12139,10,D,C,0,16970,286339,12,04-01-2015,11:12:13
12139,11,C,D,0,21562,268844,12,04-01-2015,11:12:13
12139,12,B,C,0,25938,246751,12,04-01-2015,11:12:13
12139,13,B,B,1,25191,220292,12,04-01-2015,11:12:13
12139,14,B,B,1,23879,194566,12,04-01-2015,11:12:13
12139,15,D,D,1,26092,170157,12,04-01-2015,11:12:13
12139,16,E,A,0,11706,143531,12,04-01-2015,11:12:13
12139,17,E,C,0,16739,131302,12,04-01-2015,11:12:13
12139,18,E,E,1,6798,114040,12,04-01-2015,11:12:13
12139,19,D,C,0,33272,106709,12,04-01-2015,11:12:13
12139,20,E,D,0,19352,72902,12,04-01-2015,11:12:13
12139,21,A,A,1,14690,53025,12,04-01-2015,11:12:13
12139,22,B,D,0,19636,37813,12,04-01-2015,11:12:13
12140,1,A,B,0,45805,420000,14,04-02-2015,15:20:03
12140,2,E,E,1,7917,373580,14,04-02-2015,15:20:03
12140,3,D,D,1,16788,365133,14,04-02-2015,15:20:03
12140,4,B,B,1,25027,347821,14,04-02-2015,15:20:03
12140,5,D,D,1,4876,322262,14,04-02-2015,15:20:03
12140,6,D,D,1,32827,316847,14,04-02-2015,15:20:03
12140,7,C,C,1,68226,283490,14,04-02-2015,15:20:03
12140,8,C,C,1,31949,214727,14,04-02-2015,15:20:03
12140,9,B,B,1,13970,182254,14,04-02-2015,15:20:03
12140,10,D,D,1,26777,167758,14,04-02-2015,15:20:03
