Subject,Trial,Answer,Response,Accuracy,RT,TimeLeft,TotalScore,SessionDate,SessionTime
12006,1,A,A,1,5361,300000,13,02-23-2015,09:09:20
12006,2,A,A,1,5895,294035,13,02-23-2015,09:09:20
12006,3,E,E,1,14928,287620,13,02-23-2015,09:09:20
12006,4,A,A,1,15337,272158,13,02-23-2015,09:09:20
12006,5,C,C,1,36009,256295,13,02-23-2015,09:09:20
12006,6,B,B,1,12476,219757,13,02-23-2015,09:09:20
12006,7,A,A,1,11719,206761,13,02-23-2015,09:09:20
12006,8,A,A,1,12713,194514,13,02-23-2015,09:09:20
12006,9,D,A,0,39400,181268,13,02-23-2015,09:09:20
12006,10,D,D,1,20925,141346,13,02-23-2015,09:09:20
12006,11,C,C,1,45647,119886,13,02-23-2015,09:09:20
12006,12,C,C,1,14268,73716,13,02-23-2015,09:09:20
12006,13,D,D,1,30614,58921,13,02-23-2015,09:09:20
12006,14,E,E,1,24256,27780,13,02-23-2015,09:09:20
12008,1,A,A,1,5005,300000,15,03-13-2015,12:11:01
12008,2,A,A,1,5593,294369,15,03-13-2015,12:11:01
12008,3,E,E,1,10654,288254,15,03-13-2015,12:11:01
12008,4,A,A,1,11537,277074,15,03-13-2015,12:11:01
12008,5,C,C,1,18064,265010,15,03-13-2015,12:11:01
12008,6,B,B,1,5590,246417,15,03-13-2015,12:11:01
12008,7,A,A,1,17354,240303,15,03-13-2015,12:11:01
12008,8,A,A,1,12107,222425,15,03-13-2015,12:11:01
12008,9,D,D,1,37587,209796,15,03-13-2015,12:11:01
12008,10,D,D,1,10217,171674,15,03-13-2015,12:11:01
12008,11,C,C,1,15812,160928,15,03-13-2015,12:11:01
12008,12,C,C,1,6107,144583,15,03-13-2015,12:11:01
12008,13,D,D,1,17931,137952,15,03-13-2015,12:11:01
12008,14,E,E,1,20284,119491,15,03-13-2015,12:11:01
12008,15,B,B,1,26464,98681,15,03-13-2015,12:11:01
12010,1,A,A,1,9364,300000,14,04-16-2015,16:10:22
12010,2,A,A,1,6163,290019,14,04-16-2015,16:10:22
12010,3,E,E,1,9944,283321,14,04-16-2015,16:10:22
12010,4,A,A,1,11719,272858,14,04-16-2015,16:10:22
12010,5,C,C,1,13713,260610,14,04-16-2015,16:10:22
12010,6,B,B,1,13850,246365,14,04-16-2015,16:10:22
12010,7,A,A,1,9310,231986,14,04-16-2015,16:10:22
12010,8,A,A,1,46548,222156,14,04-16-2015,16:10:22
12010,9,D,D,1,49749,175086,14,04-16-2015,16:10:22
12010,10,D,D,1,17135,124817,14,04-16-2015,16:10:22
12010,11,C,C,1,36343,107157,14,04-16-2015,16:10:22
12010,12,C,C,1,12167,70284,14,04-16-2015,16:10:22
12010,13,D,D,1,19269,57588,14,04-16-2015,16:10:22
12010,14,E,E,1,14730,37794,14,04-16-2015,16:10:22
12012,1,A,A,1,5738,300000,13,03-12-2015,10:12:55
12012,2,A,A,1,5145,293652,13,03-12-2015,10:12:55
12012,3,E,E,1,30327,287987,13,03-12-2015,10:12:55
12012,4,A,A,1,23147,257129,13,03-12-2015,10:12:55
12012,5,C,C,1,28198,233451,13,03-12-2015,10:12:55
12012,6,B,B,1,11392,204727,13,03-12-2015,10:12:55
12012,7,A,A,1,21414,192814,13,03-12-2015,10:12:55
12012,8,A,A,1,13253,170870,13,03-12-2015,10:12:55
12012,9,D,D,1,69975,157091,13,03-12-2015,10:12:55
12012,10,D,D,1,27428,86595,13,03-12-2015,10:12:55
12012,11,C,C,1,26317,58636,13,03-12-2015,10:12:55
12012,12,C,C,1,12137,31794,13,03-12-2015,10:12:55
12012,13,D,D,1,11642,19131,13,03-12-2015,10:12:55
12013,1,A,A,1,4411,300000,9,03-25-2015,14:43:07
12013,2,A,A,1,4928,294985,9,03-25-2015,14:43:07
12013,3,E,E,1,19501,289537,9,03-25-2015,14:43:07
12013,4,A,A,1,10489,269510,9,03-25-2015,14:43:07
12013,5,C,C,1,66911,258497,9,03-25-2015,14:43:07
12013,6,B,B,1,8745,191051,9,03-25-2015,14:43:07
12013,7,A,D,0,33958,181771,9,03-25-2015,14:43:07
12013,8,A,A,1,19827,147282,9,03-25-2015,14:43:07
12013,9,D,D,1,91852,126921,9,03-25-2015,14:43:07
12013,10,D,D,1,14311,34534,9,03-25-2015,14:43:07
12014,1,A,A,1,6892,300000,12,03-02-2015,09:13:19
12014,2,A,A,1,5845,292486,12,03-02-2015,09:13:19
12014,3,E,E,1,14448,286121,12,03-02-2015,09:13:19
12014,4,A,A,1,5077,271142,12,03-02-2015,09:13:19
12014,5,C,C,1,23668,265543,12,03-02-2015,09:13:19
12014,6,B,B,1,7948,241351,12,03-02-2015,09:13:19
12014,7,A,A,1,14450,232870,12,03-02-2015,09:13:19
12014,8,A,A,1,13686,217891,12,03-02-2015,09:13:19
12014,9,D,D,1,54398,203679,12,03-02-2015,09:13:19
12014,10,D,D,1,17992,148745,12,03-02-2015,09:13:19
12014,11,C,C,1,22094,130234,12,03-02-2015,09:13:19
12014,12,C,C,1,10524,107607,12,03-02-2015,09:13:19
12015,1,A,A,1,14445,300000,12,04-13-2015,12:08:00
12015,2,A,A,1,5352,284937,12,04-13-2015,12:08:00
12015,3,E,E,1,12382,279055,12,04-13-2015,12:08:00
12015,4,A,A,1,31373,266141,12,04-13-2015,12:08:00
12015,5,C,C,1,33096,234232,12,04-13-2015,12:08:00
12015,6,B,B,1,9134,200608,12,04-13-2015,12:08:00
12015,7,A,A,1,16694,190944,12,04-13-2015,12:08:00
12015,8,A,A,1,11873,173715,12,04-13-2015,12:08:00
12015,9,D,D,1,112483,161318,12,04-13-2015,12:08:00
12015,10,D,D,1,18629,48312,12,04-13-2015,12:08:00
12015,11,C,C,1,14555,29151,12,04-13-2015,12:08:00
12015,12,C,C,1,11076,14071,12,04-13-2015,12:08:00
12018,1,A,A,1,4699,300000,12,03-12-2015,12:03:50
12018,2,A,A,1,6539,294684,12,03-12-2015,12:03:50
12018,3,E,E,1,14945,287620,12,03-12-2015,12:03:50
12018,4,A,A,1,5234,272141,12,03-12-2015,12:03:50
12018,5,C,C,1,14124,266375,12,03-12-2015,12:03:50
12018,6,B,B,1,11702,251730,12,03-12-2015,12:03:50
12018,7,A,A,1,14952,239500,12,03-12-2015,12:03:50
12018,8,A,A,1,26559,224022,12,03-12-2015,12:03:50
12018,9,D,B,0,15058,196929,12,03-12-2015,12:03:50
12018,10,D,C,0,42693,181350,12,03-12-2015,12:03:50
12018,11,C,C,1,4608,138130,12,03-12-2015,12:03:50
12018,12,C,C,1,21115,132998,12,03-12-2015,12:03:50
12018,13,D,D,1,33814,111354,12,03-12-2015,12:03:50
12018,14,E,C,0,7089,77014,12,03-12-2015,12:03:50
12018,15,B,B,1,19330,69399,12,03-12-2015,12:03:50
12021,1,A,A,1,11007,300000,6,02-27-2015,13:59:50
12021,2,A,A,1,16588,288387,6,02-27-2015,13:59:50
12021,3,E,E,1,22924,271275,6,02-27-2015,13:59:50
12021,4,A,A,1,33606,247832,6,02-27-2015,13:59:50
12021,5,C,C,1,178497,213692,6,02-27-2015,13:59:50
12021,6,B,B,1,33455,34660,6,02-27-2015,13:59:50
12022,1,A,A,1,20696,300000,9,02-27-2015,16:11:31
12022,2,A,A,1,6166,278690,9,02-27-2015,16:11:31
12022,3,E,B,0,29042,271992,9,02-27-2015,16:11:31
12022,4,A,A,1,11210,242418,9,02-27-2015,16:11:31
12022,5,C,C,1,5888,230687,9,02-27-2015,16:11:31
12022,6,B,B,1,16952,224273,9,02-27-2015,16:11:31
12022,7,A,A,1,6362,206795,9,02-27-2015,16:11:31
12022,8,A,B,0,36214,199914,9,02-27-2015,16:11:31
12022,9,D,B,0,35641,163175,9,02-27-2015,16:11:31
12022,10,D,D,1,23051,127002,9,02-27-2015,16:11:31
12022,11,C,C,1,52255,103427,9,02-27-2015,16:11:31
12022,12,C,C,1,22894,50643,9,02-27-2015,16:11:31
12023,1,A,A,1,5406,300000,10,02-27-2015,14:13:48
12023,2,A,A,1,5801,293985,10,02-27-2015,14:13:48
12023,3,E,E,1,38540,287653,10,02-27-2015,14:13:48
12023,4,A,A,1,11644,248582,10,02-27-2015,14:13:48
12023,5,C,C,1,24127,236419,10,02-27-2015,14:13:48
12023,6,B,B,1,31713,211760,10,02-27-2015,14:13:48
12023,7,A,D,0,34190,179520,10,02-27-2015,14:13:48
12023,8,A,A,1,17467,144797,10,02-27-2015,14:13:48
12023,9,D,D,1,40181,126803,10,02-27-2015,14:13:48
12023,10,D,D,1,45514,86097,10,02-27-2015,14:13:48
12023,11,C,C,1,29060,40062,10,02-27-2015,14:13:48
12024,1,A,D,0,3581,300000,12,03-05-2015,14:36:37
12024,2,A,A,1,5280,295801,12,03-05-2015,14:36:37
12024,3,E,E,1,21896,289986,12,03-05-2015,14:36:37
12024,4,A,A,1,3894,267559,12,03-05-2015,14:36:37
12024,5,C,C,1,7230,263143,12,03-05-2015,14:36:37
12024,6,B,B,1,22120,255379,12,03-05-2015,14:36:37
12024,7,A,D,0,10700,232736,12,03-05-2015,14:36:37
12024,8,A,A,1,13765,221506,12,03-05-2015,14:36:37
12024,9,D,D,1,29228,207210,12,03-05-2015,14:36:37
12024,10,D,D,1,21988,177452,12,03-05-2015,14:36:37
12024,11,C,C,1,24349,154942,12,03-05-2015,14:36:37
12024,12,C,C,1,9753,130065,12,03-05-2015,14:36:37
12024,13,D,D,1,13208,119785,12,03-05-2015,14:36:37
12024,14,E,E,1,19820,106039,12,03-05-2015,14:36:37
12024,15,B,A,0,28242,85695,12,03-05-2015,14:36:37
12025,1,A,D,0,3877,300000,11,03-03-2015,11:58:32
12025,2,A,A,1,10373,295518,11,03-03-2015,11:58:32
12025,3,E,E,1,19451,284621,11,03-03-2015,11:58:32
12025,4,A,A,1,11377,264644,11,03-03-2015,11:58:32
12025,5,C,C,1,11056,252746,11,03-03-2015,11:58:32
12025,6,B,B,1,8443,241168,11,03-03-2015,11:58:32
12025,7,A,A,1,9742,232204,11,03-03-2015,11:58:32
12025,8,A,A,1,14670,221940,11,03-03-2015,11:58:32
12025,9,D,B,0,29057,206745,11,03-03-2015,11:58:32
12025,10,D,D,1,13745,177153,11,03-03-2015,11:58:32
12025,11,C,C,1,33912,162875,11,03-03-2015,11:58:32
12025,12,C,B,0,11856,128436,11,03-03-2015,11:58:32
12025,13,D,D,1,21826,116057,11,03-03-2015,11:58:32
12025,14,E,D,0,44279,93697,11,03-03-2015,11:58:32
12025,15,B,B,1,24330,48894,11,03-03-2015,11:58:32
12027,1,A,A,1,12219,300000,7,03-18-2015,12:39:14
12027,2,A,A,1,9537,287171,7,03-18-2015,12:39:14
12027,3,E,E,1,32551,277107,7,03-18-2015,12:39:14
12027,4,A,A,1,72625,244016,7,03-18-2015,12:39:14
12027,5,C,C,1,50053,170870,7,03-18-2015,12:39:14
12027,6,B,B,1,18587,120285,7,03-18-2015,12:39:14
12027,7,A,A,1,25235,101174,7,03-18-2015,12:39:14
12027,8,A,B,0,29961,75415,7,03-18-2015,12:39:14
12028,1,A,A,1,16122,300000,11,03-12-2015,14:19:48
12028,2,A,A,1,10716,283271,11,03-12-2015,14:19:48
12028,3,E,E,1,29619,272024,11,03-12-2015,14:19:48
12028,4,A,A,1,5142,241883,11,03-12-2015,14:19:48
12028,5,C,C,1,53961,236217,11,03-12-2015,14:19:48
12028,6,B,B,1,12141,181733,11,03-12-2015,14:19:48
12028,7,A,A,1,6749,169071,11,03-12-2015,14:19:48
12028,8,A,B,0,21187,161789,11,03-12-2015,14:19:48
12028,9,D,D,1,13005,140079,11,03-12-2015,14:19:48
12028,10,D,D,1,39409,126550,11,03-12-2015,14:19:48
12028,11,C,C,1,31541,86611,11,03-12-2015,14:19:48
12028,12,C,C,1,32249,54537,11,03-12-2015,14:19:48
12029,1,A,A,1,9376,300000,11,03-03-2015,13:15:21
12029,2,A,A,1,6366,290020,11,03-03-2015,13:15:21
12029,3,E,E,1,19035,283122,11,03-03-2015,13:15:21
12029,4,A,A,1,7618,263561,11,03-03-2015,13:15:21
12029,5,C,C,1,68546,255413,11,03-03-2015,13:15:21
12029,6,B,B,1,9394,186335,11,03-03-2015,13:15:21
12029,7,A,A,1,20542,176405,11,03-03-2015,13:15:21
12029,8,A,A,1,34575,155328,11,03-03-2015,13:15:21
12029,9,D,D,1,30523,120222,11,03-03-2015,13:15:21
12029,10,D,D,1,12609,89164,11,03-03-2015,13:15:21
12029,11,C,C,1,59747,76019,11,03-03-2015,13:15:21
12030,1,A,A,1,5186,300000,11,03-13-2015,10:25:57
12030,2,A,A,1,7054,294202,11,03-13-2015,10:25:57
12030,3,E,E,1,18529,286620,11,03-13-2015,10:25:57
12030,4,A,A,1,16626,267559,11,03-13-2015,10:25:57
12030,5,C,C,1,45919,250396,11,03-13-2015,10:25:57
12030,6,B,B,1,9769,203943,11,03-13-2015,10:25:57
12030,7,A,A,1,10551,193646,11,03-13-2015,10:25:57
12030,8,A,A,1,15613,182566,11,03-13-2015,10:25:57
12030,9,D,D,1,88753,166420,11,03-13-2015,10:25:57
12030,10,D,D,1,19477,77144,11,03-13-2015,10:25:57
12030,11,C,C,1,52784,57134,11,03-13-2015,10:25:57
12033,1,A,A,1,3677,300000,14,03-04-2015,10:05:16
12033,2,A,A,1,4526,295702,14,03-04-2015,10:05:16
12033,3,E,E,1,15925,290653,14,03-04-2015,10:05:16
12033,4,A,A,1,6288,274208,14,03-04-2015,10:05:16
12033,5,C,C,1,12008,267394,14,03-04-2015,10:05:16
12033,6,B,B,1,6598,254864,14,03-04-2015,10:05:16
12033,7,A,A,1,27304,247733,14,03-04-2015,10:05:16
12033,8,A,A,1,13430,219892,14,03-04-2015,10:05:16
12033,9,D,D,1,12491,205929,14,03-04-2015,10:05:16
12033,10,D,D,1,23805,192916,14,03-04-2015,10:05:16
12033,11,C,C,1,19093,168591,14,03-04-2015,10:05:16
12033,12,C,C,1,31000,148963,14,03-04-2015,10:05:16
12033,13,D,D,1,18603,117440,14,03-04-2015,10:05:16
12033,14,E,E,1,22706,98312,14,03-04-2015,10:05:16
12034,1,A,A,1,14648,300000,8,03-11-2015,09:31:22
12034,2,A,A,1,10612,284737,8,03-11-2015,09:31:22
12034,3,E,E,1,18768,273591,8,03-11-2015,09:31:22
12034,4,A,A,1,30065,254296,8,03-11-2015,09:31:22
12034,5,C,C,1,27624,223704,8,03-11-2015,09:31:22
12034,6,B,B,1,13696,195546,8,03-11-2015,09:31:22
12034,7,A,A,1,65728,181317,8,03-11-2015,09:31:22
12034,8,A,A,1,20903,115053,8,03-11-2015,09:31:22
12035,1,A,A,1,17370,300000,5,03-06-2015,11:23:32
12035,2,A,A,1,10347,282022,5,03-06-2015,11:23:32
12035,3,E,E,1,32361,271142,5,03-06-2015,11:23:32
12035,4,A,A,1,24045,238252,5,03-06-2015,11:23:32
12035,5,C,B,0,127478,213675,5,03-06-2015,11:23:32
12035,6,B,B,1,21417,85663,5,03-06-2015,11:23:32
12035,7,A,D,0,28471,63720,5,03-06-2015,11:23:32
12038,1,A,A,1,9076,300000,7,03-19-2015,14:17:19
12038,2,A,B,0,8270,290320,7,03-19-2015,14:17:19
12038,3,E,A,0,14016,281523,7,03-19-2015,14:17:19
12038,4,A,A,1,16886,266977,7,03-19-2015,14:17:19
12038,5,C,C,1,57406,249565,7,03-19-2015,14:17:19
12038,6,B,B,1,9281,191634,7,03-19-2015,14:17:19
12038,7,A,D,0,17898,181821,7,03-19-2015,14:17:19
12038,8,A,A,1,50323,163393,7,03-19-2015,14:17:19
12038,9,D,A,0,15295,112543,7,03-19-2015,14:17:19
12038,10,D,C,0,4890,96714,7,03-19-2015,14:17:19
12038,11,C,D,0,12026,91299,7,03-19-2015,14:17:19
12038,12,C,C,1,7143,78737,7,03-19-2015,14:17:19
12038,13,D,B,0,15309,71072,7,03-19-2015,14:17:19
12038,14,E,B,0,2976,55227,7,03-19-2015,14:17:19
12038,15,B,B,1,9860,51729,7,03-19-2015,14:17:19
12039,1,A,A,1,8645,300000,4,08-03-2015,15:38:26
12039,2,A,A,1,9367,290720,4,08-03-2015,15:38:26
12039,3,E,B,0,10061,280823,4,08-03-2015,15:38:26
12039,4,A,A,1,5809,270226,4,08-03-2015,15:38:26
12039,5,C,D,0,6564,263894,4,08-03-2015,15:38:26
12039,6,B,C,0,2122,256797,4,08-03-2015,15:38:26
12039,7,A,A,1,10808,254148,4,08-03-2015,15:38:26
12039,8,A,B,0,2046,242818,4,08-03-2015,15:38:26
12039,9,D,C,0,1928,240252,4,08-03-2015,15:38:26
12039,10,D,B,0,639,237802,4,08-03-2015,15:38:26
12039,11,C,E,0,5433,236636,4,08-03-2015,15:38:26
12039,12,C,B,0,9723,230671,4,08-03-2015,15:38:26
12039,13,D,A,0,1188,220424,4,08-03-2015,15:38:26
12039,14,E,A,0,4632,218708,4,08-03-2015,15:38:26
12039,15,B,C,0,11370,213543,4,08-03-2015,15:38:26
12040,1,A,E,0,6393,300000,4,08-03-2015,14:27:57
12040,2,A,E,0,6862,293002,4,08-03-2015,14:27:57
12040,3,E,C,0,8448,285604,4,08-03-2015,14:27:57
12040,4,A,A,1,16082,276623,4,08-03-2015,14:27:57
12040,5,C,E,0,9742,260009,4,08-03-2015,14:27:57
12040,6,B,B,1,10614,249746,4,08-03-2015,14:27:57
12040,7,A,D,0,12299,238599,4,08-03-2015,14:27:57
12040,8,A,C,0,19580,225769,4,08-03-2015,14:27:57
12040,9,D,A,0,13444,205658,4,08-03-2015,14:27:57
12040,10,D,C,0,13520,191678,4,08-03-2015,14:27:57
12040,11,C,A,0,7026,177631,4,08-03-2015,14:27:57
12040,12,C,C,1,12613,170083,4,08-03-2015,14:27:57
12040,13,D,D,1,19418,156937,4,08-03-2015,14:27:57
12040,14,E,A,0,15657,136992,4,08-03-2015,14:27:57
12040,15,B,C,0,4501,120813,4,08-03-2015,14:27:57
12041,1,A,A,1,5648,300000,12,03-05-2015,14:05:51
12041,2,A,A,1,4305,293719,12,03-05-2015,14:05:51
12041,3,E,E,1,10178,288887,12,03-05-2015,14:05:51
12041,4,A,A,1,17631,278174,12,03-05-2015,14:05:51
12041,5,C,C,1,27012,260011,12,03-05-2015,14:05:51
12041,6,B,B,1,6558,232470,12,03-05-2015,14:05:51
12041,7,A,A,1,11412,225389,12,03-05-2015,14:05:51
12041,8,A,A,1,34895,213443,12,03-05-2015,14:05:51
12041,9,D,D,1,45686,178020,12,03-05-2015,14:05:51
12041,10,D,D,1,11618,131800,12,03-05-2015,14:05:51
12041,11,C,C,1,49660,119654,12,03-05-2015,14:05:51
12041,12,C,C,1,12626,69469,12,03-05-2015,14:05:51
12043,1,A,A,1,5444,300000,7,03-03-2015,10:05:49
12043,2,A,A,1,12262,293936,7,03-03-2015,10:05:49
12043,3,E,E,1,24361,281139,7,03-03-2015,10:05:49
12043,4,A,A,1,37866,256246,7,03-03-2015,10:05:49
12043,5,C,C,1,126463,217857,7,03-03-2015,10:05:49
12043,6,B,B,1,22896,90861,7,03-03-2015,10:05:49
12043,7,A,A,1,24549,67434,7,03-03-2015,10:05:49
12047,1,A,A,1,11869,300000,11,03-10-2015,15:15:04
12047,2,A,A,1,5584,287521,11,03-10-2015,15:15:04
12047,3,E,D,0,39203,281406,11,03-10-2015,15:15:04
12047,4,A,A,1,9800,241668,11,03-10-2015,15:15:04
12047,5,C,C,1,36763,231338,11,03-10-2015,15:15:04
12047,6,B,B,1,6410,194049,11,03-10-2015,15:15:04
12047,7,A,A,1,10678,187118,11,03-10-2015,15:15:04
12047,8,A,B,0,22672,175904,11,03-10-2015,15:15:04
12047,9,D,D,1,33877,152711,11,03-10-2015,15:15:04
12047,10,D,D,1,14174,118305,11,03-10-2015,15:15:04
12047,11,C,C,1,15645,103610,11,03-10-2015,15:15:04
12047,12,C,B,0,24809,87431,11,03-10-2015,15:15:04
12047,13,D,D,1,29544,62089,11,03-10-2015,15:15:04
12047,14,E,E,1,12301,32015,11,03-10-2015,15:15:04
12048,1,A,A,1,13180,300000,6,03-09-2015,09:20:52
12048,2,A,A,1,9820,286205,6,03-09-2015,09:20:52
12048,3,E,E,1,20599,275858,6,03-09-2015,09:20:52
12048,4,A,A,1,7944,254731,6,03-09-2015,09:20:52
12048,5,C,D,0,33038,246266,6,03-09-2015,09:20:52
12048,6,B,B,1,10296,212694,6,03-09-2015,09:20:52
12048,7,A,D,0,23376,201864,6,03-09-2015,09:20:52
12048,8,A,A,1,27129,177955,6,03-09-2015,09:20:52
12048,9,D,A,0,20254,150297,6,03-09-2015,09:20:52
12048,10,D,C,0,25131,129519,6,03-09-2015,09:20:52
12048,11,C,D,0,18350,103862,6,03-09-2015,09:20:52
12048,12,C,A,0,17376,84984,6,03-09-2015,09:20:52
12048,13,D,A,0,20631,67073,6,03-09-2015,09:20:52
12048,14,E,A,0,24597,45913,6,03-09-2015,09:20:52
12048,15,B,A,0,11742,20788,6,03-09-2015,09:20:52
12049,1,A,A,1,6770,300000,12,03-05-2015,12:13:23
12049,2,A,A,1,8871,292619,12,03-05-2015,12:13:23
12049,3,E,E,1,20585,283222,12,03-05-2015,12:13:23
12049,4,A,A,1,14970,262112,12,03-05-2015,12:13:23
12049,5,C,C,1,10618,246616,12,03-05-2015,12:13:23
12049,6,B,B,1,17726,235470,12,03-05-2015,12:13:23
12049,7,A,A,1,17216,217209,12,03-05-2015,12:13:23
12049,8,A,A,1,14151,199464,12,03-05-2015,12:13:23
12049,9,D,D,1,19414,184785,12,03-05-2015,12:13:23
12049,10,D,E,0,24365,164841,12,03-05-2015,12:13:23
12049,11,C,C,1,30518,139949,12,03-05-2015,12:13:23
12049,12,C,C,1,15564,108908,12,03-05-2015,12:13:23
12049,13,D,D,1,41867,92813,12,03-05-2015,12:13:23
12050,1,A,A,1,5726,300000,5,04-07-2015,09:22:08
12050,2,A,A,1,18029,293668,5,04-07-2015,09:22:08
12050,3,E,E,1,41538,275107,5,04-07-2015,09:22:08
12050,4,A,A,1,13898,233036,5,04-07-2015,09:22:08
12050,5,C,B,0,38443,218607,5,04-07-2015,09:22:08
12050,6,B,B,1,13446,179635,5,04-07-2015,09:22:08
12050,7,A,D,0,14866,165656,5,04-07-2015,09:22:08
12050,8,A,B,0,73234,150261,5,04-07-2015,09:22:08
12050,9,D,B,0,75868,76499,5,04-07-2015,09:22:08
12051,1,A,A,1,7695,300000,6,03-10-2015,11:05:40
12051,2,A,A,1,7616,291702,6,03-10-2015,11:05:40
12051,3,E,B,0,65009,283554,6,03-10-2015,11:05:40
12051,4,A,A,1,28044,218024,6,03-10-2015,11:05:40
12051,5,C,A,0,32155,189449,6,03-10-2015,11:05:40
12051,6,B,B,1,10473,156759,6,03-10-2015,11:05:40
12051,7,A,D,0,19746,145762,6,03-10-2015,11:05:40
12051,8,A,D,0,39403,125484,6,03-10-2015,11:05:40
12051,9,D,B,0,46158,85546,6,03-10-2015,11:05:40
12051,10,D,D,1,19375,38860,6,03-10-2015,11:05:40
12051,11,C,C,1,15031,18949,6,03-10-2015,11:05:40
12052,1,A,A,1,4397,300000,8,03-05-2015,09:48:50
12052,2,A,A,1,6913,294985,8,03-05-2015,09:48:50
12052,3,E,E,1,10833,287537,8,03-05-2015,09:48:50
12052,4,A,A,1,10477,276174,8,03-05-2015,09:48:50
12052,5,C,C,1,84402,265178,8,03-05-2015,09:48:50
12052,6,B,B,1,6278,180254,8,03-05-2015,09:48:50
12052,7,A,A,1,28318,173456,8,03-05-2015,09:48:50
12052,8,A,A,1,27139,144614,8,03-05-2015,09:48:50
12053,1,A,A,1,649,300000,8,03-09-2015,12:55:01
12053,2,A,A,1,3162,295035,8,03-09-2015,12:55:01
12053,3,E,E,1,9223,291352,8,03-09-2015,12:55:01
12053,4,A,E,0,8116,281606,8,03-09-2015,12:55:01
12053,5,C,B,0,17435,272958,8,03-09-2015,12:55:01
12053,6,B,B,1,4386,254997,8,03-09-2015,12:55:01
12053,7,A,D,0,8998,250082,8,03-09-2015,12:55:01
12053,8,A,A,1,5515,240552,8,03-09-2015,12:55:01
12053,9,D,D,1,26401,234504,8,03-09-2015,12:55:01
12053,10,D,D,1,16059,207579,8,03-09-2015,12:55:01
12053,11,C,B,0,16055,190984,8,03-09-2015,12:55:01
12053,12,C,B,0,10221,174406,8,03-09-2015,12:55:01
12053,13,D,D,1,20752,163659,8,03-09-2015,12:55:01
12053,14,E,B,0,8298,142383,8,03-09-2015,12:55:01
12053,15,B,A,0,9188,133552,8,03-09-2015,12:55:01
12056,1,A,A,1,10098,300000,5,03-09-2015,11:05:42
12056,2,A,A,1,11555,289287,5,03-09-2015,11:05:42
12056,3,E,E,1,35193,277207,5,03-09-2015,11:05:42
12056,4,A,A,1,5087,241485,5,03-09-2015,11:05:42
12056,5,C,B,0,41221,235869,5,03-09-2015,11:05:42
12056,6,B,B,1,14625,194117,5,03-09-2015,11:05:42
12056,7,A,D,0,12112,178971,5,03-09-2015,11:05:42
12056,8,A,C,0,29199,166325,5,03-09-2015,11:05:42
12056,9,D,C,0,35529,136601,5,03-09-2015,11:05:42
12056,10,D,E,0,18735,100546,5,03-09-2015,11:05:42
12056,11,C,B,0,59279,81285,5,03-09-2015,11:05:42
12057,1,A,A,1,4276,300000,9,03-12-2015,16:00:58
12057,2,A,A,1,6500,295118,9,03-12-2015,16:00:58
12057,3,E,E,1,10165,288087,9,03-12-2015,16:00:58
12057,4,A,A,1,9083,277390,9,03-12-2015,16:00:58
12057,5,C,C,1,37179,267776,9,03-12-2015,16:00:58
12057,6,B,B,1,5922,230070,9,03-12-2015,16:00:58
12057,7,A,E,0,30223,223622,9,03-12-2015,16:00:58
12057,8,A,A,1,7946,192864,9,03-12-2015,16:00:58
12057,9,D,C,0,49286,184383,9,03-12-2015,16:00:58
12057,10,D,D,1,18986,134563,9,03-12-2015,16:00:58
12057,11,C,C,1,16211,115053,9,03-12-2015,16:00:58
12057,12,C,B,0,33216,98308,9,03-12-2015,16:00:58
12057,13,D,A,0,43520,64568,9,03-12-2015,16:00:58
12058,1,A,A,1,6472,300000,10,03-04-2015,10:25:21
12058,2,A,A,1,5250,292918,10,03-04-2015,10:25:21
12058,3,E,E,1,17779,287137,10,03-04-2015,10:25:21
12058,4,A,A,1,7556,268825,10,03-04-2015,10:25:21
12058,5,C,C,1,50240,260743,10,03-04-2015,10:25:21
12058,6,B,B,1,15678,209975,10,03-04-2015,10:25:21
12058,7,A,A,1,25689,193763,10,03-04-2015,10:25:21
12058,8,A,A,1,17734,167538,10,03-04-2015,10:25:21
12058,9,D,D,1,47591,149276,10,03-04-2015,10:25:21
12058,10,D,D,1,19230,101156,10,03-04-2015,10:25:21
12059,1,A,A,1,18585,300000,6,03-10-2015,15:38:10
12059,2,A,C,0,34847,280806,6,03-10-2015,15:38:10
12059,3,E,E,1,30617,245433,6,03-10-2015,15:38:10
12059,4,A,A,1,14947,214293,6,03-10-2015,15:38:10
12059,5,C,D,0,18148,198813,6,03-10-2015,15:38:10
12059,6,B,B,1,34675,180136,6,03-10-2015,15:38:10
12059,7,A,A,1,18148,144930,6,03-10-2015,15:38:10
12059,8,A,A,1,16709,126253,6,03-10-2015,15:38:10
12059,9,D,C,0,44158,109008,6,03-10-2015,15:38:10
12059,10,D,C,0,35685,64321,6,03-10-2015,15:38:10
12060,1,A,A,1,3921,300000,13,03-09-2015,12:10:40
12060,2,A,A,1,5031,295468,13,03-09-2015,12:10:40
12060,3,E,E,1,20537,289903,13,03-09-2015,12:10:40
12060,4,A,A,1,8572,268842,13,03-09-2015,12:10:40
12060,5,C,C,1,11402,259745,13,03-09-2015,12:10:40
12060,6,B,B,1,8584,247815,13,03-09-2015,12:10:40
12060,7,A,A,1,10661,238701,13,03-09-2015,12:10:40
12060,8,A,A,1,19864,227520,13,03-09-2015,12:10:40
12060,9,D,A,0,42356,207126,13,03-09-2015,12:10:40
12060,10,D,D,1,11067,164239,13,03-09-2015,12:10:40
12060,11,C,C,1,32030,152642,13,03-09-2015,12:10:40
12060,12,C,C,1,8983,120085,13,03-09-2015,12:10:40
12060,13,D,D,1,12605,110571,13,03-09-2015,12:10:40
12060,14,E,E,1,12163,97441,13,03-09-2015,12:10:40
12060,15,B,A,0,23610,84745,13,03-09-2015,12:10:40
12061,1,A,A,1,22907,300000,4,03-18-2015,09:33:00
12061,2,A,A,1,11831,276474,4,03-18-2015,09:33:00
12061,3,E,B,0,63369,264111,4,03-18-2015,09:33:00
12061,4,A,D,0,53557,200213,4,03-18-2015,09:33:00
12061,5,C,D,0,99363,146128,4,03-18-2015,09:33:00
12061,6,B,B,1,15098,46242,4,03-18-2015,09:33:00
12061,7,A,A,1,27828,30613,4,03-18-2015,09:33:00
12062,1,A,A,1,13516,300000,9,03-05-2015,12:34:41
12062,2,A,A,1,10358,285871,9,03-05-2015,12:34:41
12062,3,E,E,1,29788,274991,9,03-05-2015,12:34:41
12062,4,A,A,1,18454,244667,9,03-05-2015,12:34:41
12062,5,C,D,0,26459,225688,9,03-05-2015,12:34:41
12062,6,B,B,1,11402,198698,9,03-05-2015,12:34:41
12062,7,A,D,0,32711,186768,9,03-05-2015,12:34:41
12062,8,A,A,1,33333,153528,9,03-05-2015,12:34:41
12062,9,D,C,0,29986,119672,9,03-05-2015,12:34:41
12062,10,D,A,0,12126,89164,9,03-05-2015,12:34:41
12062,11,C,C,1,9879,76518,9,03-05-2015,12:34:41
12062,12,C,B,0,17832,66105,9,03-05-2015,12:34:41
12062,13,D,D,1,18269,47744,9,03-05-2015,12:34:41
12062,14,E,E,1,19234,28950,9,03-05-2015,12:34:41
12062,15,B,C,0,6153,9189,9,03-05-2015,12:34:41
12063,1,A,A,1,6617,300000,13,03-11-2015,15:10:35
12063,2,A,A,1,5478,292769,13,03-11-2015,15:10:35
12063,3,E,E,1,12822,286771,13,03-11-2015,15:10:35
12063,4,A,A,1,10244,273425,13,03-11-2015,15:10:35
12063,5,C,C,1,12671,262660,13,03-11-2015,15:10:35
12063,6,B,B,1,6714,249466,13,03-11-2015,15:10:35
12063,7,A,A,1,12490,242218,13,03-11-2015,15:10:35
12063,8,A,A,1,12797,229205,13,03-11-2015,15:10:35
12063,9,D,D,1,9738,215876,13,03-11-2015,15:10:35
12063,10,D,D,1,21857,205611,13,03-11-2015,15:10:35
12063,11,C,B,0,24695,183219,13,03-11-2015,15:10:35
12063,12,C,C,1,30523,157994,13,03-11-2015,15:10:35
12063,13,D,D,1,31064,126937,13,03-11-2015,15:10:35
12063,14,E,E,1,21656,95346,13,03-11-2015,15:10:35
12063,15,B,C,0,29749,73170,13,03-11-2015,15:10:35
12064,1,A,A,1,25352,300000,14,03-31-2015,10:18:33
12064,2,A,A,1,7516,274041,14,03-31-2015,10:18:33
12064,3,E,E,1,14211,265994,14,03-31-2015,10:18:33
12064,4,A,A,1,13481,251249,14,03-31-2015,10:18:33
12064,5,C,C,1,14436,237236,14,03-31-2015,10:18:33
12064,6,B,B,1,22416,222274,14,03-31-2015,10:18:33
12064,7,A,A,1,16384,199331,14,03-31-2015,10:18:33
12064,8,A,A,1,16416,182420,14,03-31-2015,10:18:33
12064,9,D,D,1,29244,165475,14,03-31-2015,10:18:33
12064,10,D,D,1,30108,135700,14,03-31-2015,10:18:33
12064,11,C,C,1,17506,105061,14,03-31-2015,10:18:33
12064,12,C,C,1,26573,87033,14,03-31-2015,10:18:33
12064,13,D,D,1,19079,59925,14,03-31-2015,10:18:33
12064,14,E,E,1,19507,40315,14,03-31-2015,10:18:33
12065,1,A,B,0,11173,300000,6,03-11-2015,13:16:35
12065,2,A,A,1,7228,288220,6,03-11-2015,13:16:35
12065,3,E,E,1,21224,280472,6,03-11-2015,13:16:35
12065,4,A,A,1,6606,258712,6,03-11-2015,13:16:35
12065,5,C,B,0,53569,251580,6,03-11-2015,13:16:35
12065,6,B,B,1,15475,197479,6,03-11-2015,13:16:35
12065,7,A,A,1,15862,181484,6,03-11-2015,13:16:35
12065,8,A,B,0,15602,165089,6,03-11-2015,13:16:35
12065,9,D,B,0,82022,148960,6,03-11-2015,13:16:35
12065,10,D,D,1,26582,66416,6,03-11-2015,13:16:35
12068,1,A,A,1,19471,300000,8,04-15-2015,15:23:23
12068,2,A,A,1,14668,279923,8,04-15-2015,15:23:23
12068,3,E,E,1,53102,264727,8,04-15-2015,15:23:23
12068,4,A,A,1,47817,211093,8,04-15-2015,15:23:23
12068,5,C,C,1,32566,162740,8,04-15-2015,15:23:23
12068,6,B,B,1,18915,129651,8,04-15-2015,15:23:23
12068,7,A,A,1,26094,110206,8,04-15-2015,15:23:23
12068,8,A,A,1,63600,83581,8,04-15-2015,15:23:23
12069,1,A,A,1,4817,300000,13,03-13-2015,09:17:00
12069,2,A,A,1,4668,294568,13,03-13-2015,09:17:00
12069,3,E,E,1,18221,289370,13,03-13-2015,09:17:00
12069,4,A,A,1,7388,270625,13,03-13-2015,09:17:00
12069,5,C,C,1,25160,262710,13,03-13-2015,09:17:00
12069,6,B,B,1,17123,237018,13,03-13-2015,09:17:00
12069,7,A,A,1,13869,219374,13,03-13-2015,09:17:00
12069,8,A,A,1,18056,204978,13,03-13-2015,09:17:00
12069,9,D,D,1,32772,186400,13,03-13-2015,09:17:00
12069,10,D,D,1,29152,153093,13,03-13-2015,09:17:00
12069,11,C,C,1,22404,123419,13,03-13-2015,09:17:00
12069,12,C,B,0,25435,100492,13,03-13-2015,09:17:00
12069,13,D,D,1,30171,74533,13,03-13-2015,09:17:00
12069,14,E,E,1,13263,43825,13,03-13-2015,09:17:00
12070,1,A,A,1,10563,300000,6,03-06-2015,15:54:18
12070,2,A,A,1,9850,288820,6,03-06-2015,15:54:18
12070,3,E,A,0,29684,278440,6,03-06-2015,15:54:18
12070,4,A,A,1,29123,248232,6,03-06-2015,15:54:18
12070,5,C,B,0,79027,218574,6,03-06-2015,15:54:18
12070,6,B,B,1,15443,139016,6,03-06-2015,15:54:18
12070,7,A,D,0,39494,123037,6,03-06-2015,15:54:18
12070,8,A,A,1,14608,83016,6,03-06-2015,15:54:18
12070,9,D,D,1,59139,67887,6,03-06-2015,15:54:18
12071,1,A,A,1,4806,300000,13,03-10-2015,16:01:21
12071,2,A,A,1,5435,294585,13,03-10-2015,16:01:21
12071,3,E,E,1,14605,288620,13,03-10-2015,16:01:21
12071,4,A,A,1,12747,273491,13,03-10-2015,16:01:21
12071,5,C,B,0,38001,260212,13,03-10-2015,16:01:21
12071,6,B,B,1,11094,221690,13,03-10-2015,16:01:21
12071,7,A,A,1,14792,210076,13,03-10-2015,16:01:21
12071,8,A,A,1,14575,194765,13,03-10-2015,16:01:21
12071,9,D,D,1,16406,179669,13,03-10-2015,16:01:21
12071,10,D,D,1,16205,162741,13,03-10-2015,16:01:21
12071,11,C,C,1,46683,146012,13,03-10-2015,16:01:21
12071,12,C,C,1,29829,98793,13,03-10-2015,16:01:21
12071,13,D,D,1,15495,68435,13,03-10-2015,16:01:21
12071,14,E,E,1,22784,52407,13,03-10-2015,16:01:21
12072,1,A,A,1,10547,300000,8,03-06-2015,09:22:45
12072,2,A,A,1,9882,288836,8,03-06-2015,09:22:45
12072,3,E,E,1,40633,278423,8,03-06-2015,09:22:45
12072,4,A,A,1,20437,237252,8,03-06-2015,09:22:45
12072,5,C,C,1,41762,216291,8,03-06-2015,09:22:45
12072,6,B,B,1,7931,174006,8,03-06-2015,09:22:45
12072,7,A,D,0,26025,165542,8,03-06-2015,09:22:45
12072,8,A,A,1,12018,138983,8,03-06-2015,09:22:45
12072,9,D,D,1,52956,126437,8,03-06-2015,09:22:45
12072,10,D,A,0,36533,72954,8,03-06-2015,09:22:45
12076,1,A,A,1,10648,300000,11,04-02-2015,13:05:00
12076,2,A,A,1,6683,288721,11,04-02-2015,13:05:00
12076,3,E,E,1,12620,281506,11,04-02-2015,13:05:00
12076,4,A,A,1,12194,268360,11,04-02-2015,13:05:00
12076,5,C,C,1,59373,255647,11,04-02-2015,13:05:00
12076,6,B,B,1,10217,195749,11,04-02-2015,13:05:00
12076,7,A,A,1,12878,185002,11,04-02-2015,13:05:00
12076,8,A,A,1,21512,171589,11,04-02-2015,13:05:00
12076,9,D,D,1,36234,149546,11,04-02-2015,13:05:00
12076,10,D,D,1,17685,112790,11,04-02-2015,13:05:00
12076,11,C,C,1,74253,94579,11,04-02-2015,13:05:00
12078,1,A,A,1,14965,300000,7,04-13-2015,09:06:52
12078,2,A,A,1,7022,284422,7,04-13-2015,09:06:52
12078,3,E,A,0,28816,276874,7,04-13-2015,09:06:52
12078,4,A,A,1,18650,247533,7,04-13-2015,09:06:52
12078,5,C,C,1,23254,228355,7,04-13-2015,09:06:52
12078,6,B,B,1,9166,204579,7,04-13-2015,09:06:52
12078,7,A,A,1,6140,194882,7,04-13-2015,09:06:52
12078,8,A,A,1,36145,188217,7,04-13-2015,09:06:52
12078,9,D,B,0,14752,151545,7,04-13-2015,09:06:52
12078,10,D,C,0,20816,136265,7,04-13-2015,09:06:52
12078,11,C,B,0,25783,114922,7,04-13-2015,09:06:52
12078,12,C,B,0,34176,88613,7,04-13-2015,09:06:52
12078,13,D,C,0,19485,53907,7,04-13-2015,09:06:52
12080,1,A,A,1,3624,300000,14,03-11-2015,15:13:37
12080,2,A,A,1,4650,295752,14,03-11-2015,15:13:37
12080,3,E,E,1,8812,290570,14,03-11-2015,15:13:37
12080,4,A,A,1,7960,281223,14,03-11-2015,15:13:37
12080,5,C,C,1,12614,272741,14,03-11-2015,15:13:37
12080,6,B,B,1,6988,259596,14,03-11-2015,15:13:37
12080,7,A,A,1,6210,252081,14,03-11-2015,15:13:37
12080,8,A,A,1,16733,245350,14,03-11-2015,15:13:37
12080,9,D,D,1,32294,228088,14,03-11-2015,15:13:37
12080,10,D,D,1,9669,195265,14,03-11-2015,15:13:37
12080,11,C,C,1,27207,185068,14,03-11-2015,15:13:37
12080,12,C,C,1,4352,157326,14,03-11-2015,15:13:37
12080,13,D,D,1,13389,152444,14,03-11-2015,15:13:37
12080,14,E,E,1,12165,138531,14,03-11-2015,15:13:37
12080,15,B,D,0,41426,125835,14,03-11-2015,15:13:37
12081,1,A,A,1,8946,300000,11,03-11-2015,15:07:56
12081,2,A,A,1,10256,290436,11,03-11-2015,15:07:56
12081,3,E,E,1,42130,279656,11,03-11-2015,15:07:56
12081,4,A,A,1,22803,237001,11,03-11-2015,15:07:56
12081,5,C,C,1,61121,213674,11,03-11-2015,15:07:56
12081,6,B,B,1,10783,152026,11,03-11-2015,15:07:56
12081,7,A,A,1,23085,140712,11,03-11-2015,15:07:56
12081,8,A,A,1,14074,117102,11,03-11-2015,15:07:56
12081,9,D,D,1,48524,102507,11,03-11-2015,15:07:56
12081,10,D,D,1,12455,53454,11,03-11-2015,15:07:56
12081,11,C,C,1,32065,40474,11,03-11-2015,15:07:56
12083,1,A,A,1,35569,300000,8,03-12-2015,12:14:08
12083,2,A,A,1,9984,263811,8,03-12-2015,12:14:08
12083,3,E,E,1,22012,253298,8,03-12-2015,12:14:08
12083,4,A,A,1,16164,230755,8,03-12-2015,12:14:08
12083,5,C,B,0,63528,214059,8,03-12-2015,12:14:08
12083,6,B,B,1,7040,149996,8,03-12-2015,12:14:08
12083,7,A,A,1,35666,142432,8,03-12-2015,12:14:08
12083,8,A,A,1,27579,106243,8,03-12-2015,12:14:08
12083,9,D,D,1,19581,78135,8,03-12-2015,12:14:08
12083,10,D,A,0,47924,58023,8,03-12-2015,12:14:08
12084,1,A,A,1,6434,300000,14,03-09-2015,09:08:48
12084,2,A,A,1,4412,292936,14,03-09-2015,09:08:48
12084,3,E,E,1,10832,287987,14,03-09-2015,09:08:48
12084,4,A,A,1,8540,276624,14,03-09-2015,09:08:48
12084,5,C,C,1,13283,267559,14,03-09-2015,09:08:48
12084,6,B,B,1,5086,253748,14,03-09-2015,09:08:48
12084,7,A,A,1,6534,248133,14,03-09-2015,09:08:48
12084,8,A,A,1,18541,241068,14,03-09-2015,09:08:48
12084,9,D,D,1,20919,222007,14,03-09-2015,09:08:48
12084,10,D,D,1,17514,200563,14,03-09-2015,09:08:48
12084,11,C,C,1,23252,182520,14,03-09-2015,09:08:48
12084,12,C,C,1,12658,158727,14,03-09-2015,09:08:48
12084,13,D,D,1,18428,145531,14,03-09-2015,09:08:48
12084,14,E,E,1,30266,126570,14,03-09-2015,09:08:48
12084,15,B,C,0,34289,95779,14,03-09-2015,09:08:48
12086,1,A,A,1,10201,300000,14,03-13-2015,14:56:35
12086,2,A,A,1,6695,289186,14,03-13-2015,14:56:35
12086,3,E,E,1,7127,281972,14,03-13-2015,14:56:35
12086,4,A,A,1,20119,274324,14,03-13-2015,14:56:35
12086,5,C,C,1,21578,253679,14,03-13-2015,14:56:35
12086,6,B,B,1,6835,231569,14,03-13-2015,14:56:35
12086,7,A,A,1,12102,224204,14,03-13-2015,14:56:35
12086,8,A,A,1,14943,211575,14,03-13-2015,14:56:35
12086,9,D,D,1,13968,196096,14,03-13-2015,14:56:35
12086,10,D,D,1,30150,181599,14,03-13-2015,14:56:35
12086,11,C,C,1,76952,150925,14,03-13-2015,14:56:35
12086,12,C,C,1,12802,73446,14,03-13-2015,14:56:35
12086,13,D,D,1,13367,60117,14,03-13-2015,14:56:35
12086,14,E,E,1,8815,46221,14,03-13-2015,14:56:35
12086,15,B,A,0,28403,36873,14,03-13-2015,14:56:35
12087,1,A,A,1,4141,300000,13,03-09-2015,16:15:04
12087,2,A,A,1,3379,295235,13,03-09-2015,16:15:04
12087,3,E,E,1,6960,291336,13,03-09-2015,16:15:04
12087,4,A,A,1,9839,283855,13,03-09-2015,16:15:04
12087,5,C,C,1,14938,273491,13,03-09-2015,16:15:04
12087,6,B,B,1,5299,258029,13,03-09-2015,16:15:04
12087,7,A,D,0,5427,252198,13,03-09-2015,16:15:04
12087,8,A,A,1,12606,246249,13,03-09-2015,16:15:04
12087,9,D,D,1,21787,233120,13,03-09-2015,16:15:04
12087,10,D,D,1,12317,210810,13,03-09-2015,16:15:04
12087,11,C,C,1,18222,197963,13,03-09-2015,16:15:04
12087,12,C,C,1,9572,179219,13,03-09-2015,16:15:04
12087,13,D,D,1,15018,169122,13,03-09-2015,16:15:04
12087,14,E,E,1,12088,153576,13,03-09-2015,16:15:04
12087,15,B,A,0,25506,140963,13,03-09-2015,16:15:04
12089,1,A,A,1,6101,300000,12,03-12-2015,09:12:23
12089,2,A,A,1,9389,293285,12,03-12-2015,09:12:23
12089,3,E,E,1,16450,283372,12,03-12-2015,09:12:23
12089,4,A,A,1,5672,266393,12,03-12-2015,09:12:23
12089,5,C,C,1,41104,260194,12,03-12-2015,09:12:23
12089,6,B,B,1,13305,218557,12,03-12-2015,09:12:23
12089,7,A,A,1,11051,204728,12,03-12-2015,09:12:23
12089,8,A,A,1,20758,193148,12,03-12-2015,09:12:23
12089,9,D,D,1,81475,171855,12,03-12-2015,09:12:23
12089,10,D,D,1,22201,89845,12,03-12-2015,09:12:23
12089,11,C,C,1,26360,67119,12,03-12-2015,09:12:23
12089,12,C,C,1,14243,40227,12,03-12-2015,09:12:23
12092,1,A,A,1,5473,300000,12,03-11-2015,09:09:44
12092,2,A,A,1,5363,293919,12,03-11-2015,09:09:44
12092,3,E,E,1,16743,288020,12,03-11-2015,09:09:44
12092,4,A,A,1,9001,270743,12,03-11-2015,09:09:44
12092,5,C,B,0,40180,261211,12,03-11-2015,09:09:44
12092,6,B,B,1,7323,220508,12,03-11-2015,09:09:44
12092,7,A,A,1,9370,212661,12,03-11-2015,09:09:44
12092,8,A,A,1,15056,202764,12,03-11-2015,09:09:44
12092,9,D,B,0,47355,187185,12,03-11-2015,09:09:44
12092,10,D,D,1,9781,139300,12,03-11-2015,09:09:44
12092,11,C,C,1,23801,128987,12,03-11-2015,09:09:44
12092,12,C,C,1,11003,104661,12,03-11-2015,09:09:44
12092,13,D,D,1,18168,93131,12,03-11-2015,09:09:44
12092,14,E,E,1,62509,74437,12,03-11-2015,09:09:44
12094,1,A,A,1,8271,300000,12,03-17-2015,12:08:42
12094,2,A,A,1,6626,291120,12,03-17-2015,12:08:42
12094,3,E,E,1,23397,283972,12,03-17-2015,12:08:42
12094,4,A,A,1,26685,260045,12,03-17-2015,12:08:42
12094,5,C,C,1,58265,232835,12,03-17-2015,12:08:42
12094,6,B,B,1,6401,174038,12,03-17-2015,12:08:42
12094,7,A,A,1,8942,167106,12,03-17-2015,12:08:42
12094,8,A,A,1,24812,157642,12,03-17-2015,12:08:42
12094,9,D,D,1,65673,132300,12,03-17-2015,12:08:42
12094,10,D,D,1,15283,66103,12,03-17-2015,12:08:42
12094,11,C,C,1,27118,50291,12,03-17-2015,12:08:42
12094,12,C,C,1,271,22649,12,03-17-2015,12:08:42
12095,1,A,A,1,4502,300000,13,03-12-2015,11:08:29
12095,2,A,A,1,4422,294885,13,03-12-2015,11:08:29
12095,3,E,E,1,11929,289936,13,03-12-2015,11:08:29
12095,4,A,A,1,3826,277473,13,03-12-2015,11:08:29
12095,5,C,C,1,13557,273124,13,03-12-2015,11:08:29
12095,6,B,B,1,5445,259045,13,03-12-2015,11:08:29
12095,7,A,A,1,22159,253080,13,03-12-2015,11:08:29
12095,8,A,A,1,9457,230387,13,03-12-2015,11:08:29
12095,9,D,B,0,46889,220407,13,03-12-2015,11:08:29
12095,10,D,D,1,27517,172988,13,03-12-2015,11:08:29
12095,11,C,C,1,84190,144946,13,03-12-2015,11:08:29
12095,12,C,C,1,10376,60221,13,03-12-2015,11:08:29
12095,13,D,D,1,28447,49324,13,03-12-2015,11:08:29
12095,14,E,E,1,19742,20349,13,03-12-2015,11:08:29
12096,1,A,A,1,12847,300000,4,03-11-2015,14:03:36
12096,2,A,B,0,15531,286537,4,03-11-2015,14:03:36
12096,3,E,B,0,22203,270476,4,03-11-2015,14:03:36
12096,4,A,B,0,18379,247749,4,03-11-2015,14:03:36
12096,5,C,A,0,17219,228838,4,03-11-2015,14:03:36
12096,6,B,B,1,15114,211094,4,03-11-2015,14:03:36
12096,7,A,D,0,15540,195449,4,03-11-2015,14:03:36
12096,8,A,B,0,25340,179387,4,03-11-2015,14:03:36
12096,9,D,D,1,25631,153512,4,03-11-2015,14:03:36
12096,10,D,D,1,28206,127354,4,03-11-2015,14:03:36
12096,11,C,D,0,26551,98613,4,03-11-2015,14:03:36
12096,12,C,B,0,15994,71538,4,03-11-2015,14:03:36
12096,13,D,A,0,10522,55010,4,03-11-2015,14:03:36
12096,14,E,C,0,19266,43963,4,03-11-2015,14:03:36
12096,15,B,A,0,11111,24169,4,03-11-2015,14:03:36
12097,1,A,A,1,6748,300000,13,03-13-2015,11:07:52
12097,2,A,A,1,7594,292636,13,03-13-2015,11:07:52
12097,3,E,E,1,17607,284521,13,03-13-2015,11:07:52
12097,4,A,A,1,11767,266393,13,03-13-2015,11:07:52
12097,5,C,C,1,26956,254096,13,03-13-2015,11:07:52
12097,6,B,B,1,15320,226621,13,03-13-2015,11:07:52
12097,7,A,A,1,10026,210776,13,03-13-2015,11:07:52
12097,8,A,A,1,16782,200229,13,03-13-2015,11:07:52
12097,9,D,D,1,56300,182917,13,03-13-2015,11:07:52
12097,10,D,D,1,16865,126083,13,03-13-2015,11:07:52
12097,11,C,C,1,37244,108689,13,03-13-2015,11:07:52
12097,12,C,C,1,30711,70916,13,03-13-2015,11:07:52
12097,13,D,D,1,24213,39675,13,03-13-2015,11:07:52
12098,1,A,A,1,4702,300000,14,04-03-2015,15:11:27
12098,2,A,A,1,7861,294685,14,04-03-2015,15:11:27
12098,3,E,E,1,21815,286304,14,04-03-2015,15:11:27
12098,4,A,A,1,5648,263961,14,04-03-2015,15:11:27
12098,5,C,C,1,8337,257780,14,04-03-2015,15:11:27
12098,6,B,B,1,11208,248916,14,04-03-2015,15:11:27
12098,7,A,D,0,20798,237186,14,04-03-2015,15:11:27
12098,8,A,A,1,11830,215859,14,04-03-2015,15:11:27
12098,9,D,D,1,24449,203497,14,04-03-2015,15:11:27
12098,10,D,D,1,13585,178521,14,04-03-2015,15:11:27
12098,11,C,C,1,33357,164409,14,04-03-2015,15:11:27
12098,12,C,C,1,19443,130519,14,04-03-2015,15:11:27
12098,13,D,D,1,14225,110542,14,04-03-2015,15:11:27
12098,14,E,E,1,28669,95797,14,04-03-2015,15:11:27
12098,15,B,B,1,18109,66606,14,04-03-2015,15:11:27
12101,1,A,A,1,10749,300000,10,04-08-2015,11:21:06
12101,2,A,A,1,6069,288637,10,04-08-2015,11:21:06
12101,3,E,E,1,32253,282039,10,04-08-2015,11:21:06
12101,4,A,A,1,19495,249265,10,04-08-2015,11:21:06
12101,5,C,C,1,53911,229238,10,04-08-2015,11:21:06
12101,6,B,B,1,9949,174804,10,04-08-2015,11:21:06
12101,7,A,A,1,10228,164323,10,04-08-2015,11:21:06
12101,8,A,A,1,11944,153576,10,04-08-2015,11:21:06
12101,9,D,D,1,48999,141097,10,04-08-2015,11:21:06
12101,10,D,D,1,42245,91578,10,04-08-2015,11:21:06
12102,1,A,A,1,5872,300000,8,03-24-2015,11:00:36
12102,2,A,A,1,10361,293518,8,03-24-2015,11:00:36
12102,3,E,B,0,15024,282638,8,03-24-2015,11:00:36
12102,4,A,A,1,11301,267093,8,03-24-2015,11:00:36
12102,5,C,C,1,12015,255263,8,03-24-2015,11:00:36
12102,6,B,B,1,8404,242717,8,03-24-2015,11:00:36
12102,7,A,D,0,11673,233786,8,03-24-2015,11:00:36
12102,8,A,D,0,36851,221589,8,03-24-2015,11:00:36
12102,9,D,D,1,37124,184200,8,03-24-2015,11:00:36
12102,10,D,D,1,24218,146545,8,03-24-2015,11:00:36
12102,11,C,C,1,66464,121802,8,03-24-2015,11:00:36
12102,12,C,B,0,32009,54805,8,03-24-2015,11:00:36
12103,1,A,A,1,26718,300000,6,03-17-2015,09:24:39
12103,2,A,A,1,16035,272675,6,03-17-2015,09:24:39
12103,3,E,B,0,124642,256113,6,03-17-2015,09:24:39
12103,4,A,A,1,21853,130948,6,03-17-2015,09:24:39
12103,5,C,C,1,40178,108555,6,03-17-2015,09:24:39
12103,6,B,B,1,27992,67850,6,03-17-2015,09:24:39
12103,7,A,A,1,16770,39325,6,03-17-2015,09:24:39
12104,1,A,A,1,10832,300000,9,03-25-2015,16:16:26
12104,2,A,A,1,6900,288553,9,03-25-2015,16:16:26
12104,3,E,E,1,35267,281122,9,03-25-2015,16:16:26
12104,4,A,E,0,9493,245332,9,03-25-2015,16:16:26
12104,5,C,C,1,12934,235319,9,03-25-2015,16:16:26
12104,6,B,B,1,15534,221856,9,03-25-2015,16:16:26
12104,7,A,A,1,22936,205794,9,03-25-2015,16:16:26
12104,8,A,A,1,45145,182334,9,03-25-2015,16:16:26
12104,9,D,D,1,66031,136665,9,03-25-2015,16:16:26
12104,10,D,D,1,32833,70100,9,03-25-2015,16:16:26
12105,1,A,C,0,41734,300000,4,03-25-2015,10:23:51
12105,2,A,A,1,78186,257647,4,03-25-2015,10:23:51
12105,3,E,E,1,52394,178938,4,03-25-2015,10:23:51
12105,4,A,A,1,25555,126022,4,03-25-2015,10:23:51
12105,5,C,C,1,92680,99945,4,03-25-2015,10:23:51
12107,1,A,E,0,8038,300000,5,03-16-2015,11:02:20
12107,2,A,C,0,21808,291336,5,03-16-2015,11:02:20
12107,3,E,E,1,40462,268994,5,03-16-2015,11:02:20
12107,4,A,A,1,19889,228006,5,03-16-2015,11:02:20
12107,5,C,D,0,32365,207595,5,03-16-2015,11:02:20
12107,6,B,C,0,40319,174707,5,03-16-2015,11:02:20
12107,7,A,A,1,12296,133853,5,03-16-2015,11:02:20
12107,8,A,D,0,24953,121024,5,03-16-2015,11:02:20
12107,9,D,B,0,11061,95548,5,03-16-2015,11:02:20
12107,10,D,D,1,25190,83952,5,03-16-2015,11:02:20
12107,11,C,D,0,24943,58227,5,03-16-2015,11:02:20
12107,12,C,C,1,17123,32752,5,03-16-2015,11:02:20
12109,1,A,A,1,9867,300000,10,03-17-2015,12:11:13
12109,2,A,A,1,6862,289519,10,03-17-2015,12:11:13
12109,3,E,E,1,17144,282138,10,03-17-2015,12:11:13
12109,4,A,A,1,24561,264460,10,03-17-2015,12:11:13
12109,5,C,C,1,13915,239367,10,03-17-2015,12:11:13
12109,6,B,B,1,10596,224922,10,03-17-2015,12:11:13
12109,7,A,D,0,14226,213792,10,03-17-2015,12:11:13
12109,8,A,A,1,37981,199046,10,03-17-2015,12:11:13
12109,9,D,D,1,33203,160540,10,03-17-2015,12:11:13
12109,10,D,C,0,7838,126800,10,03-17-2015,12:11:13
12109,11,C,C,1,27017,118436,10,03-17-2015,12:11:13
12109,12,C,C,1,17322,90894,10,03-17-2015,12:11:13
12109,13,D,B,0,26171,73049,10,03-17-2015,12:11:13
12109,14,E,B,0,13550,46357,10,03-17-2015,12:11:13
12109,15,B,C,0,5526,32278,10,03-17-2015,12:11:13
12110,1,A,A,1,11345,300000,9,03-17-2015,12:11:59
12110,2,A,A,1,8320,288021,9,03-17-2015,12:11:59
12110,3,E,E,1,20128,279173,9,03-17-2015,12:11:59
12110,4,A,A,1,19282,258512,9,03-17-2015,12:11:59
12110,5,C,C,1,37029,238700,9,03-17-2015,12:11:59
12110,6,B,B,1,12776,201146,9,03-17-2015,12:11:59
12110,7,A,A,1,28879,187849,9,03-17-2015,12:11:59
12110,8,A,D,0,17550,158441,9,03-17-2015,12:11:59
12110,9,D,D,1,59405,140363,9,03-17-2015,12:11:59
12110,10,D,D,1,43254,80430,9,03-17-2015,12:11:59
12112,1,A,A,1,7220,300000,10,03-16-2015,12:24:44
12112,2,A,A,1,7097,292169,10,03-16-2015,12:24:44
12112,3,E,E,1,25809,284538,10,03-16-2015,12:24:44
12112,4,A,A,1,12881,258196,10,03-16-2015,12:24:44
12112,5,C,C,1,138749,244782,10,03-16-2015,12:24:44
12112,6,B,B,1,21120,105506,10,03-16-2015,12:24:44
12112,7,A,A,1,21347,83863,10,03-16-2015,12:24:44
12112,8,A,A,1,29916,61986,10,03-16-2015,12:24:44
12112,9,D,D,1,25410,31544,10,03-16-2015,12:24:44
12113,1,A,A,1,6776,300000,14,03-12-2015,10:14:31
12113,2,A,A,1,6878,292619,14,03-12-2015,10:14:31
12113,3,E,E,1,14343,285221,14,03-12-2015,10:14:31
12113,4,A,A,1,14512,270358,14,03-12-2015,10:14:31
12113,5,C,C,1,41831,255313,14,03-12-2015,10:14:31
12113,6,B,B,1,5997,212961,14,03-12-2015,10:14:31
12113,7,A,A,1,12161,206429,14,03-12-2015,10:14:31
12113,8,A,A,1,18552,193733,14,03-12-2015,10:14:31
12113,9,D,D,1,33176,174656,14,03-12-2015,10:14:31
12113,10,D,D,1,32884,140950,14,03-12-2015,10:14:31
12113,11,C,C,1,34186,107544,14,03-12-2015,10:14:31
12113,12,C,C,1,15783,72822,14,03-12-2015,10:14:31
12113,13,D,D,1,17958,56510,14,03-12-2015,10:14:31
12113,14,E,E,1,26686,38032,14,03-12-2015,10:14:31
12115,1,A,B,0,13781,300000,4,03-17-2015,09:09:27
12115,2,A,B,0,18291,285588,4,03-17-2015,09:09:27
12115,3,E,D,0,13767,266776,4,03-17-2015,09:09:27
12115,4,A,A,1,5503,252481,4,03-17-2015,09:09:27
12115,5,C,B,0,19742,246448,4,03-17-2015,09:09:27
12115,6,B,A,0,17639,226172,4,03-17-2015,09:09:27
12115,7,A,A,1,9045,207994,4,03-17-2015,09:09:27
12115,8,A,B,0,30839,198413,4,03-17-2015,09:09:27
12115,9,D,C,0,25984,167039,4,03-17-2015,09:09:27
12115,10,D,C,0,14074,140529,4,03-17-2015,09:09:27
12115,11,C,D,0,37212,125935,4,03-17-2015,09:09:27
12115,12,C,C,1,26351,88196,4,03-17-2015,09:09:27
12115,13,D,A,0,8763,61303,4,03-17-2015,09:09:27
12115,14,E,A,0,12953,52006,4,03-17-2015,09:09:27
12115,15,B,B,1,11385,38527,4,03-17-2015,09:09:27
12116,1,A,A,1,4701,300000,14,03-11-2015,14:46:07
12116,2,A,A,1,4894,294685,14,03-11-2015,14:46:07
12116,3,E,E,1,9526,289270,14,03-11-2015,14:46:07
12116,4,A,A,1,8446,279223,14,03-11-2015,14:46:07
12116,5,C,C,1,39695,270242,14,03-11-2015,14:46:07
12116,6,B,B,1,5257,230022,14,03-11-2015,14:46:07
12116,7,A,A,1,21042,224240,14,03-11-2015,14:46:07
12116,8,A,A,1,11105,202663,14,03-11-2015,14:46:07
12116,9,D,D,1,76206,191033,14,03-11-2015,14:46:07
12116,10,D,D,1,12198,114305,14,03-11-2015,14:46:07
12116,11,C,C,1,30251,101577,14,03-11-2015,14:46:07
12116,12,C,C,1,9660,70804,14,03-11-2015,14:46:07
12116,13,D,D,1,14527,60623,14,03-11-2015,14:46:07
12116,14,E,E,1,22576,45561,14,03-11-2015,14:46:07
12117,1,A,D,0,8627,300000,8,04-02-2015,13:08:35
12117,2,A,A,1,7263,290769,8,04-02-2015,13:08:35
12117,3,E,C,0,10121,282972,8,04-02-2015,13:08:35
12117,4,A,C,0,17448,272325,8,04-02-2015,13:08:35
12117,5,C,C,1,14246,254347,8,04-02-2015,13:08:35
12117,6,B,B,1,19170,239568,8,04-02-2015,13:08:35
12117,7,A,A,1,6067,219875,8,04-02-2015,13:08:35
12117,8,A,E,0,13340,213277,8,04-02-2015,13:08:35
12117,9,D,C,0,14029,199414,8,04-02-2015,13:08:35
12117,10,D,E,0,19194,184852,8,04-02-2015,13:08:35
12117,11,C,C,1,28896,165125,8,04-02-2015,13:08:35
12117,12,C,C,1,21174,135701,8,04-02-2015,13:08:35
12117,13,D,D,1,19143,113991,8,04-02-2015,13:08:35
12117,14,E,E,1,13832,94314,8,04-02-2015,13:08:35
12117,15,B,A,0,22604,79952,8,04-02-2015,13:08:35
12118,1,A,A,1,3940,300000,14,04-01-2015,09:09:41
12118,2,A,A,1,4419,295435,14,04-01-2015,09:09:41
12118,3,E,E,1,7989,290487,14,04-01-2015,09:09:41
12118,4,A,A,1,6843,281972,14,04-01-2015,09:09:41
12118,5,C,C,1,9661,274607,14,04-01-2015,09:09:41
12118,6,B,B,1,3593,264411,14,04-01-2015,09:09:41
12118,7,A,A,1,6389,260296,14,04-01-2015,09:09:41
12118,8,A,A,1,11906,253381,14,04-01-2015,09:09:41
12118,9,D,D,1,23075,240951,14,04-01-2015,09:09:41
12118,10,D,D,1,9632,217342,14,04-01-2015,09:09:41
12118,11,C,C,1,47234,207178,14,04-01-2015,09:09:41
12118,12,C,C,1,10432,159409,14,04-01-2015,09:09:41
12118,13,D,D,1,16099,148446,14,04-01-2015,09:09:41
12118,14,E,E,1,16382,131817,14,04-01-2015,09:09:41
12118,15,B,A,0,52763,114906,14,04-01-2015,09:09:41
12119,1,A,B,0,13411,300000,0,03-19-2015,09:51:20
12119,2,A,C,0,12112,285955,0,03-19-2015,09:51:20
12119,3,E,C,0,7770,273308,0,03-19-2015,09:51:20
12119,4,A,C,0,18687,265011,0,03-19-2015,09:51:20
12119,5,C,D,0,39897,245799,0,03-19-2015,09:51:20
12119,6,B,A,0,12044,205378,0,03-19-2015,09:51:20
12119,7,A,D,0,14432,192814,0,03-19-2015,09:51:20
12119,8,A,D,0,13084,177853,0,03-19-2015,09:51:20
12119,9,D,B,0,9656,164240,0,03-19-2015,09:51:20
12119,10,D,B,0,32073,154060,0,03-19-2015,09:51:20
12119,11,C,D,0,12841,121453,0,03-19-2015,09:51:20
12119,12,C,B,0,20429,108090,0,03-19-2015,09:51:20
12119,13,D,B,0,23348,87129,0,03-19-2015,09:51:20
12119,14,E,A,0,14062,63253,0,03-19-2015,09:51:20
12119,15,B,C,0,19162,48657,0,03-19-2015,09:51:20
12120,1,A,A,1,3957,300000,14,03-31-2015,15:27:51
12120,2,A,A,1,3915,295435,14,03-31-2015,15:27:51
12120,3,E,E,1,10778,290986,14,03-31-2015,15:27:51
12120,4,A,A,1,9591,279673,14,03-31-2015,15:27:51
12120,5,C,C,1,19077,269559,14,03-31-2015,15:27:51
12120,6,B,B,1,7706,249948,14,03-31-2015,15:27:51
12120,7,A,A,1,14946,241717,14,03-31-2015,15:27:51
12120,8,A,A,1,7738,226239,14,03-31-2015,15:27:51
12120,9,D,D,1,82238,217975,14,03-31-2015,15:27:51
12120,10,D,D,1,12125,135199,14,03-31-2015,15:27:51
12120,11,C,C,1,37741,122553,14,03-31-2015,15:27:51
12120,12,C,C,1,16620,84281,14,03-31-2015,15:27:51
12120,13,D,D,1,34161,67136,14,03-31-2015,15:27:51
12120,14,E,E,1,13062,32446,14,03-31-2015,15:27:51
12121,1,A,A,1,35790,300000,6,03-16-2015,09:17:42
12121,2,A,A,1,25257,263594,6,03-16-2015,09:17:42
12121,3,E,C,0,43567,237801,6,03-16-2015,09:17:42
12121,4,A,A,1,27566,193714,6,03-16-2015,09:17:42
12121,5,C,C,1,50784,165621,6,03-16-2015,09:17:42
12121,6,B,B,1,29816,114304,6,03-16-2015,09:17:42
12121,7,A,A,1,10825,83963,6,03-16-2015,09:17:42
12121,8,A,D,0,35837,72616,6,03-16-2015,09:17:42
12121,9,D,B,0,34519,36243,6,03-16-2015,09:17:42
12122,1,A,A,1,13978,300000,4,03-16-2015,09:18:13
12122,2,A,E,0,10209,285405,4,03-16-2015,09:18:13
12122,3,E,A,0,27366,274674,4,03-16-2015,09:18:13
12122,4,A,E,0,24992,246783,4,03-16-2015,09:18:13
12122,5,C,C,1,12249,221257,4,03-16-2015,09:18:13
12122,6,B,B,1,9166,208477,4,03-16-2015,09:18:13
12122,7,A,D,0,32163,198780,4,03-16-2015,09:18:13
12122,8,A,B,0,34582,166090,4,03-16-2015,09:18:13
12122,9,D,B,0,32914,130983,4,03-16-2015,09:18:13
12122,10,D,C,0,27808,97543,4,03-16-2015,09:18:13
12122,11,C,C,1,32584,69202,4,03-16-2015,09:18:13
12122,12,C,B,0,34115,36095,4,03-16-2015,09:18:13
12123,1,A,A,1,5257,300000,10,03-12-2015,14:22:52
12123,2,A,A,1,4603,294135,10,03-12-2015,14:22:52
12123,3,E,E,1,18766,289004,10,03-12-2015,14:22:52
12123,4,A,A,1,13735,269709,10,03-12-2015,14:22:52
12123,5,C,C,1,42422,255446,10,03-12-2015,14:22:52
12123,6,B,B,1,16691,212494,10,03-12-2015,14:22:52
12123,7,A,A,1,8543,195282,10,03-12-2015,14:22:52
12123,8,A,A,1,17902,186218,10,03-12-2015,14:22:52
12123,9,D,B,0,53014,167791,10,03-12-2015,14:22:52
12123,10,D,D,1,15319,114240,10,03-12-2015,14:22:52
12123,11,C,C,1,83149,98395,10,03-12-2015,14:22:52
12124,1,A,A,1,5508,300000,7,03-19-2015,09:06:59
12124,2,A,C,0,47609,293885,7,03-19-2015,09:06:59
12124,3,E,E,1,37255,245749,7,03-19-2015,09:06:59
12124,4,A,A,1,34913,207960,7,03-19-2015,09:06:59
12124,5,C,C,1,38367,172519,7,03-19-2015,09:06:59
12124,6,B,B,1,11541,133631,7,03-19-2015,09:06:59
12124,7,A,A,1,29549,121568,7,03-19-2015,09:06:59
12124,8,A,A,1,46744,91493,7,03-19-2015,09:06:59
12125,1,A,A,1,5591,300000,14,03-31-2015,09:10:38
12125,2,A,A,1,4963,293801,14,03-31-2015,09:10:38
12125,3,E,E,1,10681,288303,14,03-31-2015,09:10:38
12125,4,A,A,1,11579,277090,14,03-31-2015,09:10:38
12125,5,C,C,1,21520,264976,14,03-31-2015,09:10:38
12125,6,B,B,1,8812,242933,14,03-31-2015,09:10:38
12125,7,A,A,1,7009,233586,14,03-31-2015,09:10:38
12125,8,A,A,1,10109,226055,14,03-31-2015,09:10:38
12125,9,D,D,1,13397,215425,14,03-31-2015,09:10:38
12125,10,D,D,1,39562,201496,14,03-31-2015,09:10:38
12125,11,C,C,1,32656,161408,14,03-31-2015,09:10:38
12125,12,C,C,1,10905,128217,14,03-31-2015,09:10:38
12125,13,D,D,1,8795,116787,14,03-31-2015,09:10:38
12125,14,E,E,1,72068,107457,14,03-31-2015,09:10:38
12126,1,A,A,1,4411,300000,15,04-02-2015,14:02:34
12126,2,A,A,1,4615,294985,15,04-02-2015,14:02:34
12126,3,E,E,1,10250,289837,15,04-02-2015,14:02:34
12126,4,A,A,1,7829,279057,15,04-02-2015,14:02:34
12126,5,C,C,1,15784,270692,15,04-02-2015,14:02:34
12126,6,B,B,1,7696,254381,15,04-02-2015,14:02:34
12126,7,A,A,1,28087,246150,15,04-02-2015,14:02:34
12126,8,A,A,1,12774,217542,15,04-02-2015,14:02:34
12126,9,D,D,1,42564,204246,15,04-02-2015,14:02:34
12126,10,D,D,1,13444,161158,15,04-02-2015,14:02:34
12126,11,C,C,1,50366,147195,15,04-02-2015,14:02:34
12126,12,C,C,1,8792,96295,15,04-02-2015,14:02:34
12126,13,D,D,1,17981,86981,15,04-02-2015,14:02:34
12126,14,E,E,1,22157,68470,15,04-02-2015,14:02:34
12126,15,B,B,1,17894,45776,15,04-02-2015,14:02:34
12127,1,A,B,0,4585,300000,10,03-18-2015,12:12:57
12127,2,A,A,1,9773,294785,10,03-18-2015,12:12:57
12127,3,E,E,1,21243,284488,10,03-18-2015,12:12:57
12127,4,A,A,1,20537,262711,10,03-18-2015,12:12:57
12127,5,C,C,1,15707,241650,10,03-18-2015,12:12:57
12127,6,B,B,1,18406,225422,10,03-18-2015,12:12:57
12127,7,A,A,1,21828,206495,10,03-18-2015,12:12:57
12127,8,A,A,1,23515,184135,10,03-18-2015,12:12:57
12127,9,D,D,1,29094,160092,10,03-18-2015,12:12:57
12127,10,D,D,1,18661,130467,10,03-18-2015,12:12:57
12127,11,C,B,0,18361,111273,10,03-18-2015,12:12:57
12127,12,C,C,1,40889,92378,10,03-18-2015,12:12:57
12129,1,A,A,1,6250,300000,5,03-16-2015,10:26:10
12129,2,A,A,1,11981,293135,5,03-16-2015,10:26:10
12129,3,E,E,1,13058,280622,5,03-16-2015,10:26:10
12129,4,A,A,1,7287,267042,5,03-16-2015,10:26:10
12129,5,C,D,0,140930,259227,5,03-16-2015,10:26:10
12129,6,B,B,1,7142,117767,5,03-16-2015,10:26:10
12129,7,A,D,0,16444,110103,5,03-16-2015,10:26:10
12129,8,A,B,0,20976,93124,5,03-16-2015,10:26:10
12129,9,D,B,0,65496,71613,5,03-16-2015,10:26:10
12133,1,A,A,1,12024,300000,13,03-30-2015,15:49:27
12133,2,A,A,1,8222,287370,13,03-30-2015,15:49:27
12133,3,E,E,1,15625,278623,13,03-30-2015,15:49:27
12133,4,A,A,1,8527,262477,13,03-30-2015,15:49:27
12133,5,C,C,1,20903,253429,13,03-30-2015,15:49:27
12133,6,B,B,1,14258,232003,13,03-30-2015,15:49:27
12133,7,A,A,1,14358,217224,13,03-30-2015,15:49:27
12133,8,A,A,1,29854,202345,13,03-30-2015,15:49:27
12133,9,D,D,1,19710,171954,13,03-30-2015,15:49:27
12133,10,D,D,1,18841,151710,13,03-30-2015,15:49:27
12133,11,C,C,1,59156,132332,13,03-30-2015,15:49:27
12133,12,C,C,1,17360,72650,13,03-30-2015,15:49:27
12133,13,D,D,1,53167,54755,13,03-30-2015,15:49:27
12134,1,A,A,1,6158,300000,9,03-17-2015,09:02:19
12134,2,A,A,1,9155,293236,9,03-17-2015,09:02:19
12134,3,E,E,1,27338,283555,9,03-17-2015,09:02:19
12134,4,A,A,1,13382,255697,9,03-17-2015,09:02:19
12134,5,C,C,1,25700,241784,9,03-17-2015,09:02:19
12134,6,B,B,1,11146,215559,9,03-17-2015,09:02:19
12134,7,A,A,1,13809,203879,9,03-17-2015,09:02:19
12134,8,A,A,1,40398,189550,9,03-17-2015,09:02:19
12134,9,D,B,0,85704,148628,9,03-17-2015,09:02:19
12134,10,D,D,1,37636,62404,9,03-17-2015,09:02:19
12135,1,A,A,1,4775,300000,8,03-18-2015,13:11:57
12135,2,A,A,1,4725,294618,8,03-18-2015,13:11:57
12135,3,E,E,1,38449,289370,8,03-18-2015,13:11:57
12135,4,A,A,1,9932,250382,8,03-18-2015,13:11:57
12135,5,C,C,1,76376,239917,8,03-18-2015,13:11:57
12135,6,B,B,1,4442,163008,8,03-18-2015,13:11:57
12135,7,A,A,1,31507,158043,8,03-18-2015,13:11:57
12135,8,A,A,1,10186,126003,8,03-18-2015,13:11:57
12136,1,A,A,1,48288,300000,6,03-30-2015,10:19:42
12136,2,A,A,1,8621,251098,6,03-30-2015,10:19:42
12136,3,E,D,0,39367,241951,6,03-30-2015,10:19:42
12136,4,A,A,1,9222,202063,6,03-30-2015,10:19:42
12136,5,C,C,1,37609,192314,6,03-30-2015,10:19:42
12136,6,B,B,1,30004,154177,6,03-30-2015,10:19:42
12136,7,A,D,0,39086,123652,6,03-30-2015,10:19:42
12136,8,A,A,1,64133,84047,6,03-30-2015,10:19:42
12137,1,A,A,1,30292,300000,5,03-17-2015,12:39:55
12137,2,A,A,1,10851,269093,5,03-17-2015,12:39:55
12137,3,E,E,1,71002,257713,5,03-17-2015,12:39:55
12137,4,A,A,1,8474,186186,5,03-17-2015,12:39:55
12137,5,C,B,0,51001,177187,5,03-17-2015,12:39:55
12137,6,B,B,1,41975,125655,5,03-17-2015,12:39:55
12137,7,A,D,0,25302,83152,5,03-17-2015,12:39:55
12137,8,A,D,0,25531,57326,5,03-17-2015,12:39:55
12137,9,D,B,0,12943,31268,5,03-17-2015,12:39:55
12138,1,A,A,1,20539,300000,8,03-17-2015,12:22:51
12138,2,A,A,1,9301,278856,8,03-17-2015,12:22:51
12138,3,E,E,1,45925,269025,8,03-17-2015,12:22:51
12138,4,A,A,1,11751,222571,8,03-17-2015,12:22:51
12138,5,C,C,1,30038,210290,8,03-17-2015,12:22:51
12138,6,B,B,1,23814,179717,8,03-17-2015,12:22:51
12138,7,A,A,1,65356,155373,8,03-17-2015,12:22:51
12138,8,A,C,0,49800,89492,8,03-17-2015,12:22:51
12138,9,D,D,1,17439,39156,8,03-17-2015,12:22:51
12139,1,A,A,1,4892,300000,6,03-24-2015,11:14:30
12139,2,A,A,1,8188,294502,6,03-24-2015,11:14:30
12139,3,E,D,0,37271,285788,6,03-24-2015,11:14:30
12139,4,A,A,1,10323,247983,6,03-24-2015,11:14:30
12139,5,C,D,0,32689,237136,6,03-24-2015,11:14:30
12139,6,B,B,1,10281,203914,6,03-24-2015,11:14:30
12139,7,A,D,0,16755,193100,6,03-24-2015,11:14:30
12139,8,A,B,0,21859,175823,6,03-24-2015,11:14:30
12139,9,D,D,1,36783,153430,6,03-24-2015,11:14:30
12139,10,D,A,0,40995,116124,6,03-24-2015,11:14:30
12139,11,C,C,1,36952,74605,6,03-24-2015,11:14:30
12139,12,C,A,0,22118,37116,6,03-24-2015,11:14:30
12140,1,A,A,1,17323,300000,6,04-01-2015,14:39:25
12140,2,A,A,1,17229,282072,6,04-01-2015,14:39:25
12140,3,E,E,1,51817,264310,6,04-01-2015,14:39:25
12140,4,A,A,1,10417,211959,6,04-01-2015,14:39:25
12140,5,C,B,0,72497,201012,6,04-01-2015,14:39:25
12140,6,B,B,1,10317,127985,6,04-01-2015,14:39:25
12140,7,A,D,0,13197,117138,6,04-01-2015,14:39:25
12140,8,A,A,1,60560,103409,6,04-01-2015,14:39:25
12141,1,A,E,0,8945,300000,3,04-13-2015,11:01:27
12141,2,A,E,0,10409,290436,3,04-13-2015,11:01:27
12141,3,E,E,1,33821,279506,3,04-13-2015,11:01:27
12141,4,A,A,1,32039,245166,3,04-13-2015,11:01:27
12141,5,C,D,0,37150,212592,3,04-13-2015,11:01:27
12141,6,B,C,0,27069,174921,3,04-13-2015,11:01:27
12141,7,A,C,0,29659,147329,3,04-13-2015,11:01:27
12141,8,A,C,0,29314,117138,3,04-13-2015,11:01:27
12141,9,D,B,0,29360,87297,3,04-13-2015,11:01:27
12141,10,D,D,1,47394,57405,3,04-13-2015,11:01:27
12142,1,A,B,0,7990,300000,7,03-24-2015,11:19:01
12142,2,A,A,1,8780,291403,7,03-24-2015,11:19:01
12142,3,E,E,1,22584,282089,7,03-24-2015,11:19:01
12142,4,A,A,1,8043,258979,7,03-24-2015,11:19:01
12142,5,C,D,0,45100,250414,7,03-24-2015,11:19:01
12142,6,B,B,1,316,204795,7,03-24-2015,11:19:01
12142,7,A,A,1,14969,191566,7,03-24-2015,11:19:01
12142,8,A,B,0,9208,176071,7,03-24-2015,11:19:01
12142,9,D,C,0,41347,166341,7,03-24-2015,11:19:01
12142,10,D,D,1,12756,124470,7,03-24-2015,11:19:01
12142,11,C,C,1,14908,111191,7,03-24-2015,11:19:01
12142,12,C,B,0,13182,95762,7,03-24-2015,11:19:01
12142,13,D,A,0,18221,82049,7,03-24-2015,11:19:01
12142,14,E,A,0,308,63305,7,03-24-2015,11:19:01
12143,1,A,A,1,13303,300000,9,04-03-2015,10:17:23
12143,2,A,A,1,12513,286087,9,04-03-2015,10:17:23
12143,3,E,E,1,47384,273041,9,04-03-2015,10:17:23
12143,4,A,A,1,14872,225122,9,04-03-2015,10:17:23
12143,5,C,C,1,34171,209726,9,04-03-2015,10:17:23
12143,6,B,B,1,10727,175020,9,04-03-2015,10:17:23
12143,7,A,A,1,6321,163772,9,04-03-2015,10:17:23
12143,8,A,A,1,12544,156925,9,04-03-2015,10:17:23
12143,9,D,B,0,28231,143846,9,04-03-2015,10:17:23
12143,10,D,D,1,30527,115088,9,04-03-2015,10:17:23
12143,11,C,D,0,37620,84030,9,04-03-2015,10:17:23
12143,12,C,B,0,14575,45875,9,04-03-2015,10:17:23
12143,13,D,A,0,20822,30779,9,04-03-2015,10:17:23
12144,1,A,A,1,4899,300000,8,04-01-2015,13:14:13
12144,2,A,A,1,6730,294485,8,04-01-2015,13:14:13
12144,3,E,E,1,140274,287220,8,04-01-2015,13:14:13
12144,4,A,A,1,9377,146412,8,04-01-2015,13:14:13
12144,5,C,C,1,54836,136514,8,04-01-2015,13:14:13
12144,6,B,B,1,11277,81148,8,04-01-2015,13:14:13
12144,7,A,A,1,29119,69351,8,04-01-2015,13:14:13
12144,8,A,A,1,38555,39710,8,04-01-2015,13:14:13
12147,1,A,A,1,11042,300000,8,04-02-2015,16:19:47
12147,2,A,A,1,8607,288354,8,04-02-2015,16:19:47
12147,3,E,E,1,13267,279223,8,04-02-2015,16:19:47
12147,4,A,A,1,8015,265427,8,04-02-2015,16:19:47
12147,5,C,B,0,15011,256879,8,04-02-2015,16:19:47
12147,6,B,B,1,10289,241334,8,04-02-2015,16:19:47
12147,7,A,C,0,20674,230521,8,04-02-2015,16:19:47
12147,8,A,B,0,40110,209327,8,04-02-2015,16:19:47
12147,9,D,A,0,23703,168689,8,04-02-2015,16:19:47
12147,10,D,C,0,24707,144463,8,04-02-2015,16:19:47
12147,11,C,C,1,21679,119221,8,04-02-2015,16:19:47
12147,12,C,B,0,15036,97011,8,04-02-2015,16:19:47
12147,13,D,D,1,14665,81449,8,04-02-2015,16:19:47
12147,14,E,A,0,9725,66253,8,04-02-2015,16:19:47
12147,15,B,B,1,22725,56006,8,04-02-2015,16:19:47
12148,1,A,A,1,8575,300000,5,03-31-2015,13:53:19
12148,2,A,A,1,10277,290803,5,03-31-2015,13:53:19
12148,3,E,B,0,77042,279990,5,03-31-2015,13:53:19
12148,4,A,A,1,20545,202413,5,03-31-2015,13:53:19
12148,5,C,B,0,30906,181335,5,03-31-2015,13:53:19
12148,6,B,B,1,21607,149896,5,03-31-2015,13:53:19
12148,7,A,A,1,13807,127753,5,03-31-2015,13:53:19
12149,1,A,E,0,5562,300000,4,03-31-2015,14:17:14
12149,2,A,B,0,9727,293819,4,03-31-2015,14:17:14
12149,3,E,C,0,9616,283572,4,03-31-2015,14:17:14
12149,4,A,A,1,6460,273425,4,03-31-2015,14:17:14
12149,5,C,A,0,14478,266443,4,03-31-2015,14:17:14
12149,6,B,B,1,6714,251431,4,03-31-2015,14:17:14
12149,7,A,D,0,11977,244183,4,03-31-2015,14:17:14
12149,8,A,C,0,8024,231686,4,03-31-2015,14:17:14
12149,9,D,B,0,7797,223139,4,03-31-2015,14:17:14
12149,10,D,A,0,6481,214808,4,03-31-2015,14:17:14
12149,11,C,E,0,9322,207794,4,03-31-2015,14:17:14
12149,12,C,B,0,9274,197947,4,03-31-2015,14:17:14
12149,13,D,D,1,12300,188150,4,03-31-2015,14:17:14
12149,14,E,A,0,10463,175320,4,03-31-2015,14:17:14
12149,15,B,B,1,6497,164323,4,03-31-2015,14:17:14
12150,1,A,E,0,8988,300000,2,03-31-2015,09:05:50
12150,2,A,A,1,15769,290403,2,03-31-2015,09:05:50
12150,3,E,B,0,14769,274107,2,03-31-2015,09:05:50
12150,4,A,A,1,5513,258812,2,03-31-2015,09:05:50
12150,5,C,B,0,511,252764,2,03-31-2015,09:05:50
12150,6,B,C,0,4317,234786,2,03-31-2015,09:05:50
12150,7,A,D,0,10909,229937,2,03-31-2015,09:05:50
12150,8,A,D,0,21021,218507,2,03-31-2015,09:05:50
12150,9,D,A,0,5941,196963,2,03-31-2015,09:05:50
12150,10,D,B,0,5596,190498,2,03-31-2015,09:05:50
12150,11,C,B,0,8808,184367,2,03-31-2015,09:05:50
12150,12,C,B,0,23764,175037,2,03-31-2015,09:05:50
12150,13,D,B,0,14158,150744,2,03-31-2015,09:05:50
12150,14,E,C,0,4119,136065,2,03-31-2015,09:05:50
12150,15,B,C,0,11414,131416,2,03-31-2015,09:05:50
12153,1,A,A,1,4899,300000,8,04-03-2015,11:35:21
12153,2,A,A,1,6468,294485,8,04-03-2015,11:35:21
12153,3,E,E,1,23069,287487,8,04-03-2015,11:35:21
12153,4,A,A,1,7307,263894,8,04-03-2015,11:35:21
12153,5,C,D,0,15979,256062,8,04-03-2015,11:35:21
12153,6,B,B,1,7915,239551,8,04-03-2015,11:35:21
12153,7,A,D,0,8330,231104,8,04-03-2015,11:35:21
12153,8,A,A,1,20393,222240,8,04-03-2015,11:35:21
12153,9,D,B,0,26592,201313,8,04-03-2015,11:35:21
12153,10,D,D,1,16410,174187,8,04-03-2015,11:35:21
12153,11,C,B,0,32608,157242,8,04-03-2015,11:35:21
12153,12,C,C,1,31354,124102,8,04-03-2015,11:35:21
12153,13,D,A,0,32782,92228,8,04-03-2015,11:35:21
12153,14,E,A,0,55888,58921,8,04-03-2015,11:35:21
12154,1,A,A,1,7515,300000,8,04-01-2015,09:13:39
12154,2,A,A,1,8163,291869,8,04-01-2015,09:13:39
12154,3,E,E,1,39151,283172,8,04-01-2015,09:13:39
12154,4,A,A,1,27757,243484,8,04-01-2015,09:13:39
12154,5,C,C,1,71838,215191,8,04-01-2015,09:13:39
12154,6,B,B,1,12476,142830,8,04-01-2015,09:13:39
12154,7,A,D,0,28293,129834,8,04-01-2015,09:13:39
12154,8,A,A,1,55937,101009,8,04-01-2015,09:13:39
12154,9,D,D,1,41044,44542,8,04-01-2015,09:13:39
12155,1,A,A,1,52940,300000,6,04-01-2015,15:14:54
12155,2,A,A,1,25639,246449,6,04-01-2015,15:14:54
12155,3,E,E,1,61893,220290,6,04-01-2015,15:14:54
12155,4,A,A,1,31524,157875,6,04-01-2015,15:14:54
12155,5,C,B,0,31449,125817,6,04-01-2015,15:14:54
12155,6,B,B,1,46432,93845,6,04-01-2015,15:14:54
12155,7,A,A,1,24029,46891,6,04-01-2015,15:14:54
12160,1,A,A,1,21814,300000,7,04-06-2015,16:31:28
12160,2,A,A,1,20990,277574,7,04-06-2015,16:31:28
12160,3,E,B,0,21047,256063,7,04-06-2015,16:31:28
12160,4,A,A,1,30508,234486,7,04-06-2015,16:31:28
12160,5,C,B,0,20129,203445,7,04-06-2015,16:31:28
12160,6,B,B,1,13789,182785,7,04-06-2015,16:31:28
12160,7,A,A,1,15307,168473,7,04-06-2015,16:31:28
12160,8,A,B,0,32165,152644,7,04-06-2015,16:31:28
12160,9,D,B,0,25368,119954,7,04-06-2015,16:31:28
12160,10,D,B,0,397,94061,7,04-06-2015,16:31:28
12160,11,C,C,1,22079,65004,7,04-06-2015,16:31:28
12160,12,C,C,1,16788,42394,7,04-06-2015,16:31:28
12160,13,D,A,0,14972,25082,7,04-06-2015,16:31:28
12161,1,A,A,1,7889,300000,5,04-06-2015,13:21:08
12161,2,A,A,1,15898,291502,5,04-06-2015,13:21:08
12161,3,E,B,0,10349,275074,5,04-06-2015,13:21:08
12161,4,A,A,1,6941,264194,5,04-06-2015,13:21:08
12161,5,C,C,1,12907,256729,5,04-06-2015,13:21:08
12161,6,B,B,1,16860,243301,5,04-06-2015,13:21:08
12161,7,A,D,0,12169,225906,5,04-06-2015,13:21:08
12161,8,A,C,0,9097,213210,5,04-06-2015,13:21:08
12161,9,D,B,0,9321,203580,5,04-06-2015,13:21:08
12161,10,D,E,0,7897,193733,5,04-06-2015,13:21:08
12161,11,C,D,0,9442,185302,5,04-06-2015,13:21:08
12161,12,C,A,0,9846,175339,5,04-06-2015,13:21:08
12161,13,D,B,0,10465,164958,5,04-06-2015,13:21:08
12161,14,E,A,0,6179,153962,5,04-06-2015,13:21:08
12161,15,B,A,0,15888,147247,5,04-06-2015,13:21:08
12162,1,A,A,1,16600,300000,8,04-10-2015,12:11:05
12162,2,A,A,1,10207,282788,8,04-10-2015,12:11:05
12162,3,E,E,1,19251,272057,8,04-10-2015,12:11:05
12162,4,A,A,1,11217,252279,8,04-10-2015,12:11:05
12162,5,C,C,1,14958,240531,8,04-10-2015,12:11:05
12162,6,B,B,1,13318,225052,8,04-10-2015,12:11:05
12162,7,A,A,1,26767,211205,8,04-10-2015,12:11:05
12162,8,A,A,1,19602,183912,8,04-10-2015,12:11:05
12163,1,A,D,0,10189,300000,4,04-07-2015,11:18:17
12163,2,A,B,0,16411,289203,4,04-07-2015,11:18:17
12163,3,E,D,0,27026,272257,4,04-07-2015,11:18:17
12163,4,A,A,1,15185,244697,4,04-07-2015,11:18:17
12163,5,C,B,0,23208,228984,4,04-07-2015,11:18:17
12163,6,B,B,1,23464,205240,4,04-07-2015,11:18:17
12163,7,A,C,0,10846,181247,4,04-07-2015,11:18:17
12163,8,A,D,0,21088,169866,4,04-07-2015,11:18:17
12163,9,D,B,0,46213,148254,4,04-07-2015,11:18:17
12163,10,D,D,1,8387,101515,4,04-07-2015,11:18:17
12163,11,C,D,0,10721,92602,4,04-07-2015,11:18:17
12163,12,C,B,0,15232,81355,4,04-07-2015,11:18:17
12163,13,D,B,0,21694,65592,4,04-07-2015,11:18:17
12163,14,E,B,0,14690,43364,4,04-07-2015,11:18:17
12163,15,B,B,1,17957,28152,4,04-07-2015,11:18:17
12166,1,A,A,1,9854,300000,6,04-08-2015,13:17:29
12166,2,A,A,1,9305,289536,6,04-08-2015,13:17:29
12166,3,E,B,0,43447,279706,6,04-08-2015,13:17:29
12166,4,A,A,1,19428,235736,6,04-08-2015,13:17:29
12166,5,C,B,0,30338,215774,6,04-08-2015,13:17:29
12166,6,B,B,1,24047,184917,6,04-08-2015,13:17:29
12166,7,A,D,0,24677,160342,6,04-08-2015,13:17:29
12166,8,A,A,1,23179,135132,6,04-08-2015,13:17:29
12166,9,D,D,1,32715,111423,6,04-08-2015,13:17:29
12166,10,D,C,0,28057,78183,6,04-08-2015,13:17:29
12166,11,C,D,0,20841,49591,6,04-08-2015,13:17:29
12166,12,C,B,0,13744,28231,6,04-08-2015,13:17:29
12168,1,A,A,1,6909,300000,8,04-15-2015,15:35:19
12168,2,A,A,1,6278,292486,8,04-15-2015,15:35:19
12168,3,E,B,0,43110,285687,8,04-15-2015,15:35:19
12168,4,A,A,1,6536,242050,8,04-15-2015,15:35:19
12168,5,C,D,0,51565,234985,8,04-15-2015,15:35:19
12168,6,B,B,1,22533,182884,8,04-15-2015,15:35:19
12168,7,A,A,1,24560,159824,8,04-15-2015,15:35:19
12168,8,A,A,1,53657,134731,8,04-15-2015,15:35:19
12168,9,D,D,1,23199,80547,8,04-15-2015,15:35:19
12168,10,D,D,1,18232,56820,8,04-15-2015,15:35:19
12170,1,A,A,1,16122,300000,4,04-13-2015,09:14:26
12170,2,A,A,1,13445,283272,4,04-13-2015,09:14:26
12170,3,E,B,0,13969,269292,4,04-13-2015,09:14:26
12170,4,A,C,0,1825,254797,4,04-13-2015,09:14:26
12170,5,C,B,0,300,252447,4,04-13-2015,09:14:26
12170,6,B,E,0,202,251614,4,04-13-2015,09:14:26
12170,7,A,B,0,21,250881,4,04-13-2015,09:14:26
12170,8,A,D,0,7,250331,4,04-13-2015,09:14:26
12170,9,D,C,0,266,249798,4,04-13-2015,09:14:26
12170,10,D,B,0,402,248998,4,04-13-2015,09:14:26
12170,11,C,A,0,765,248064,4,04-13-2015,09:14:26
12170,12,C,C,1,13232,246766,4,04-13-2015,09:14:26
12170,13,D,D,1,11142,233003,4,04-13-2015,09:14:26
12170,14,E,B,0,870,221340,4,04-13-2015,09:14:26
12170,15,B,C,0,10934,219940,4,04-13-2015,09:14:26
12171,1,A,B,0,14408,300000,6,04-14-2015,09:07:21
12171,2,A,B,0,13775,284987,6,04-14-2015,09:07:21
12171,3,E,E,1,82778,270691,6,04-14-2015,09:07:21
12171,4,A,A,1,8581,187382,6,04-14-2015,09:07:21
12171,5,C,C,1,31089,178268,6,04-14-2015,09:07:21
12171,6,B,B,1,31199,146644,6,04-14-2015,09:07:21
12171,7,A,A,1,24833,114920,6,04-14-2015,09:07:21
12171,8,A,A,1,34049,89560,6,04-14-2015,09:07:21
12172,1,A,A,1,9924,300000,3,04-14-2015,15:21:26
12172,2,A,D,0,10468,289470,3,04-14-2015,15:21:26
12172,3,E,D,0,8016,278473,3,04-14-2015,15:21:26
12172,4,A,A,1,5123,269926,3,04-14-2015,15:21:26
12172,5,C,C,1,7915,264276,3,04-14-2015,15:21:26
12172,6,B,C,0,6794,255830,3,04-14-2015,15:21:26
12172,7,A,B,0,1056,248515,3,04-14-2015,15:21:26
12172,8,A,D,0,1521,246933,3,04-14-2015,15:21:26
12172,9,D,B,0,1120,244883,3,04-14-2015,15:21:26
12172,10,D,A,0,678,243233,3,04-14-2015,15:21:26
12172,11,C,E,0,702,242034,3,04-14-2015,15:21:26
12172,12,C,D,0,446,240801,3,04-14-2015,15:21:26
12172,13,D,B,0,991,239835,3,04-14-2015,15:21:26
12172,14,E,C,0,1531,238318,3,04-14-2015,15:21:26
12172,15,B,D,0,906,236268,3,04-14-2015,15:21:26
12173,1,A,A,1,11611,300000,6,04-14-2015,16:02:40
12173,2,A,A,1,18656,287770,6,04-14-2015,16:02:40
12173,3,E,E,1,74324,268591,6,04-14-2015,16:02:40
12173,4,A,A,1,21708,193726,6,04-14-2015,16:02:40
12173,5,C,C,1,18960,171497,6,04-14-2015,16:02:40
12173,6,B,B,1,42696,152004,6,04-14-2015,16:02:40
12173,7,A,D,0,5714,108781,6,04-14-2015,16:02:40
12173,8,A,D,0,3521,102533,6,04-14-2015,16:02:40
12173,9,D,C,0,3120,98484,6,04-14-2015,16:02:40
12173,10,D,B,0,11911,94834,6,04-14-2015,16:02:40
12173,11,C,B,0,6816,82388,6,04-14-2015,16:02:40
12173,12,C,D,0,6364,75040,6,04-14-2015,16:02:40
12173,13,D,A,0,64545,68141,6,04-14-2015,16:02:40
12174,1,A,B,0,22739,300000,3,04-15-2015,15:41:39
12174,2,A,B,0,25470,276657,3,04-15-2015,15:41:39
12174,3,E,B,0,53658,250664,3,04-15-2015,15:41:39
12174,4,A,A,1,9074,196480,3,04-15-2015,15:41:39
12174,5,C,C,1,71737,186883,3,04-15-2015,15:41:39
12174,6,B,B,1,38232,114622,3,04-15-2015,15:41:39
12174,7,A,D,0,50634,75867,3,04-15-2015,15:41:39
12175,1,A,A,1,42854,300000,4,04-15-2015,15:42:02
12175,2,A,E,0,41569,256527,4,04-15-2015,15:42:02
12175,3,E,B,0,34278,214420,4,04-15-2015,15:42:02
12175,4,A,A,1,16558,179613,4,04-15-2015,15:42:02
12175,5,C,C,1,12423,162533,4,04-15-2015,15:42:02
12175,6,B,B,1,12852,149587,4,04-15-2015,15:42:02
12175,7,A,D,0,27887,136207,4,04-15-2015,15:42:02
12175,8,A,C,0,32053,107798,4,04-15-2015,15:42:02
12175,9,D,A,0,14902,75223,4,04-15-2015,15:42:02
12175,10,D,A,0,14897,59792,4,04-15-2015,15:42:02
12175,11,C,B,0,39330,44364,4,04-15-2015,15:42:02
12176,1,A,A,1,10723,300000,8,04-15-2015,09:20:26
12176,2,A,A,1,13396,288670,8,04-15-2015,09:20:26
12176,3,E,E,1,13298,274740,8,04-15-2015,09:20:26
12176,4,A,A,1,10740,260911,8,04-15-2015,09:20:26
12176,5,C,C,1,13923,249648,8,04-15-2015,09:20:26
12176,6,B,B,1,9510,235202,8,04-15-2015,09:20:26
12176,7,A,A,1,14214,225172,8,04-15-2015,09:20:26
12176,8,A,A,1,10788,210426,8,04-15-2015,09:20:26
12177,1,A,A,1,13244,300000,8,04-15-2015,10:04:54
12177,2,A,A,1,30800,286153,8,04-15-2015,10:04:54
12177,3,E,E,1,64586,254828,8,04-15-2015,10:04:54
12177,4,A,A,1,8140,189711,8,04-15-2015,10:04:54
12177,5,C,C,1,45875,181045,8,04-15-2015,10:04:54
12177,6,B,B,1,25910,134641,8,04-15-2015,10:04:54
12177,7,A,A,1,14642,108198,8,04-15-2015,10:04:54
12177,8,A,A,1,48167,93035,8,04-15-2015,10:04:54
12178,1,A,E,0,100379,300000,1,04-15-2015,10:03:41
12178,2,A,A,1,128261,198997,1,04-15-2015,10:03:41
12179,1,A,A,1,9880,300000,4,04-15-2015,12:19:12
12179,2,A,A,1,10835,289503,4,04-15-2015,12:19:12
12179,3,E,B,0,65124,278140,4,04-15-2015,12:19:12
12179,4,A,B,0,20387,212492,4,04-15-2015,12:19:12
12179,5,C,B,0,39602,191580,4,04-15-2015,12:19:12
12179,6,B,B,1,17775,151442,4,04-15-2015,12:19:12
12179,7,A,A,1,14847,133148,4,04-15-2015,12:19:12
12179,8,A,B,0,35410,117769,4,04-15-2015,12:19:12
12179,9,D,A,0,69347,81829,4,04-15-2015,12:19:12
12180,1,A,A,1,6638,300000,8,04-15-2015,12:38:21
12180,2,A,A,1,9417,292752,8,04-15-2015,12:38:21
12180,3,E,E,1,36363,282805,8,04-15-2015,12:38:21
12180,4,A,A,1,8650,245916,8,04-15-2015,12:38:21
12180,5,C,B,0,39226,236735,8,04-15-2015,12:38:21
12180,6,B,B,1,12407,196981,8,04-15-2015,12:38:21
12180,7,A,D,0,56794,184052,8,04-15-2015,12:38:21
12180,8,A,A,1,19749,126736,8,04-15-2015,12:38:21
12180,9,D,D,1,16895,106459,8,04-15-2015,12:38:21
12180,10,D,D,1,30145,89031,8,04-15-2015,12:38:21
12181,1,A,A,1,4436,300000,10,04-21-2015,13:58:23
12181,2,A,A,1,4895,294952,10,04-21-2015,13:58:23
12181,3,E,E,1,10031,289536,10,04-21-2015,13:58:23
12181,4,A,A,1,13444,278973,10,04-21-2015,13:58:23
12181,5,C,C,1,9120,264994,10,04-21-2015,13:58:23
12181,6,B,B,1,4928,255347,10,04-21-2015,13:58:23
12181,7,A,A,1,33758,249899,10,04-21-2015,13:58:23
12181,8,A,A,1,13491,215609,10,04-21-2015,13:58:23
12181,9,D,B,0,117919,201596,10,04-21-2015,13:58:23
12181,10,D,D,1,11127,83148,10,04-21-2015,13:58:23
12181,11,C,B,0,27502,71502,10,04-21-2015,13:58:23
12181,12,C,C,1,6653,43460,10,04-21-2015,13:58:23
12183,1,A,A,1,9981,300000,7,04-28-2015,13:47:27
12183,2,A,A,1,13116,289403,7,04-28-2015,13:47:27
12183,3,E,B,0,18116,275757,7,04-28-2015,13:47:27
12183,4,A,A,1,8735,257113,7,04-28-2015,13:47:27
12183,5,C,C,1,1183,247849,7,04-28-2015,13:47:27
12183,6,B,B,1,763,246133,7,04-28-2015,13:47:27
12183,7,A,A,1,1240,244850,7,04-28-2015,13:47:27
12183,8,A,B,0,5785,243084,7,04-28-2015,13:47:27
12183,9,D,A,0,11781,236769,7,04-28-2015,13:47:27
12183,10,D,B,0,8020,224456,7,04-28-2015,13:47:27
12183,11,C,B,0,3521,215908,7,04-28-2015,13:47:27
12183,12,C,C,1,872,211860,7,04-28-2015,13:47:27
12183,13,D,B,0,344,210460,7,04-28-2015,13:47:27
12183,14,E,B,0,398,209594,7,04-28-2015,13:47:27
12183,15,B,A,0,793,208677,7,04-28-2015,13:47:27
12184,1,A,E,0,18701,300000,7,04-20-2015,11:28:44
12184,2,A,C,0,15080,280689,7,04-20-2015,11:28:44
12184,3,E,C,0,11476,265077,7,04-20-2015,11:28:44
12184,4,A,A,1,6815,253081,7,04-20-2015,11:28:44
12184,5,C,D,0,16714,245732,7,04-20-2015,11:28:44
12184,6,B,B,1,21620,228488,7,04-20-2015,11:28:44
12184,7,A,D,0,18955,206345,7,04-20-2015,11:28:44
12184,8,A,C,0,34028,186868,7,04-20-2015,11:28:44
12184,9,D,B,0,15590,152312,7,04-20-2015,11:28:44
12184,10,D,D,1,15629,136200,7,04-20-2015,11:28:44
12184,11,C,C,1,20227,120038,7,04-20-2015,11:28:44
12184,12,C,C,1,13449,99278,7,04-20-2015,11:28:44
12184,13,D,D,1,34980,85299,7,04-20-2015,11:28:44
12186,1,A,A,1,8308,300000,11,04-20-2015,12:27:06
12186,2,A,A,1,6660,291086,11,04-20-2015,12:27:06
12186,3,E,E,1,13527,283904,11,04-20-2015,12:27:06
12186,4,A,A,1,12304,269858,11,04-20-2015,12:27:06
12186,5,C,C,1,41536,257029,11,04-20-2015,12:27:06
12186,6,B,B,1,7520,214957,11,04-20-2015,12:27:06
12186,7,A,A,1,20927,206910,11,04-20-2015,12:27:06
12186,8,A,A,1,23858,185449,11,04-20-2015,12:27:06
12186,9,D,D,1,28935,161056,11,04-20-2015,12:27:06
12186,10,D,D,1,15845,131598,11,04-20-2015,12:27:06
12186,11,C,C,1,108004,115220,11,04-20-2015,12:27:06
12187,1,A,A,1,5827,300000,14,04-17-2015,09:00:46
12187,2,A,A,1,8790,293552,14,04-17-2015,09:00:46
12187,3,E,E,1,20923,284238,14,04-17-2015,09:00:46
12187,4,A,A,1,5671,262794,14,04-17-2015,09:00:46
12187,5,C,C,1,33527,256597,14,04-17-2015,09:00:46
12187,6,B,B,1,12749,222540,14,04-17-2015,09:00:46
12187,7,A,A,1,22645,209261,14,04-17-2015,09:00:46
12187,8,A,A,1,15596,186084,14,04-17-2015,09:00:46
12187,9,D,D,1,43992,169955,14,04-17-2015,09:00:46
12187,10,D,D,1,13767,125434,14,04-17-2015,09:00:46
12187,11,C,C,1,17054,111139,14,04-17-2015,09:00:46
12187,12,C,C,1,16331,93561,14,04-17-2015,09:00:46
12187,13,D,D,1,12637,76700,14,04-17-2015,09:00:46
12187,14,E,E,1,13137,63537,14,04-17-2015,09:00:46
12194,1,A,A,1,11102,300000,9,04-21-2015,11:39:45
12194,2,A,A,1,8231,288286,9,04-21-2015,11:39:45
12194,3,E,E,1,15730,279522,9,04-21-2015,11:39:45
12194,4,A,A,1,12611,263261,9,04-21-2015,11:39:45
12194,5,C,C,1,44655,250113,9,04-21-2015,11:39:45
12194,6,B,B,1,11035,204928,9,04-21-2015,11:39:45
12194,7,A,A,1,26406,193365,9,04-21-2015,11:39:45
12194,8,A,B,0,22423,166423,9,04-21-2015,11:39:45
12194,9,D,D,1,89170,143480,9,04-21-2015,11:39:45
12194,10,D,D,1,17783,53772,9,04-21-2015,11:39:45
12195,1,A,A,1,19509,300000,6,04-21-2015,16:03:04
12195,2,A,A,1,12768,279856,6,04-21-2015,16:03:04
12195,3,E,C,0,42301,266560,6,04-21-2015,16:03:04
12195,4,A,A,1,5592,223723,6,04-21-2015,16:03:04
12195,5,C,A,0,19012,217608,6,04-21-2015,16:03:04
12195,6,B,B,1,17715,198064,6,04-21-2015,16:03:04
12195,7,A,A,1,40803,179820,6,04-21-2015,16:03:04
12195,8,A,B,0,44431,138482,6,04-21-2015,16:03:04
12195,9,D,A,0,20100,93529,6,04-21-2015,16:03:04
12195,10,D,D,1,30751,72902,6,04-21-2015,16:03:04
12195,11,C,D,0,24540,41628,6,04-21-2015,16:03:04
12195,12,C,B,0,12680,16568,6,04-21-2015,16:03:04
12202,1,A,A,1,6036,300000,8,04-21-2015,15:12:15
12202,2,A,A,1,10271,293352,8,04-21-2015,15:12:15
12202,3,E,E,1,16497,282555,8,04-21-2015,15:12:15
12202,4,A,A,1,23595,265527,8,04-21-2015,15:12:15
12202,5,C,C,1,64274,241399,8,04-21-2015,15:12:15
12202,6,B,B,1,8131,176603,8,04-21-2015,15:12:15
12202,7,A,A,1,57296,167939,8,04-21-2015,15:12:15
12202,8,A,A,1,25349,110106,8,04-21-2015,15:12:15
12203,1,A,A,1,9181,300000,13,04-24-2015,16:27:26
12203,2,A,A,1,11706,290203,13,04-24-2015,16:27:26
12203,3,E,E,1,11323,277973,13,04-24-2015,16:27:26
12203,4,A,A,1,6653,266126,13,04-24-2015,16:27:26
12203,5,C,C,1,8759,258945,13,04-24-2015,16:27:26
12203,6,B,B,1,7550,249665,13,04-24-2015,16:27:26
12203,7,A,D,0,19916,241584,13,04-24-2015,16:27:26
12203,8,A,A,1,11663,221140,13,04-24-2015,16:27:26
12203,9,D,D,1,17106,208943,13,04-24-2015,16:27:26
12203,10,D,D,1,22781,191315,13,04-24-2015,16:27:26
12203,11,C,C,1,39708,168005,13,04-24-2015,16:27:26
12203,12,C,B,0,7662,127767,13,04-24-2015,16:27:26
12203,13,D,D,1,28919,119586,13,04-24-2015,16:27:26
12203,14,E,E,1,21436,90145,13,04-24-2015,16:27:26
12203,15,B,B,1,16939,68185,13,04-24-2015,16:27:26
12204,1,A,A,1,17001,300000,8,04-22-2015,09:14:12
12204,2,A,A,1,15384,282388,8,04-22-2015,09:14:12
12204,3,E,E,1,29958,266476,8,04-22-2015,09:14:12
12204,4,A,A,1,7890,235984,8,04-22-2015,09:14:12
12204,5,C,C,1,47363,227568,8,04-22-2015,09:14:12
12204,6,B,B,1,16611,179682,8,04-22-2015,09:14:12
12204,7,A,A,1,32945,162536,8,04-22-2015,09:14:12
12204,8,A,A,1,40133,129061,8,04-22-2015,09:14:12
12207,1,A,A,1,5543,300000,10,04-21-2015,15:23:15
12207,2,A,A,1,6493,293852,10,04-21-2015,15:23:15
12207,3,E,E,1,9351,286837,10,04-21-2015,15:23:15
12207,4,A,A,1,7734,276957,10,04-21-2015,15:23:15
12207,5,C,C,1,27836,268692,10,04-21-2015,15:23:15
12207,6,B,B,1,4589,240335,10,04-21-2015,15:23:15
12207,7,A,D,0,14937,235220,10,04-21-2015,15:23:15
12207,8,A,A,1,15458,219757,10,04-21-2015,15:23:15
12207,9,D,D,1,50260,203778,10,04-21-2015,15:23:15
12207,10,D,D,1,13467,152993,10,04-21-2015,15:23:15
12207,11,C,D,0,96313,138998,10,04-21-2015,15:23:15
12207,12,C,C,1,23218,42161,10,04-21-2015,15:23:15
12211,1,A,A,1,7912,300000,12,04-22-2015,10:12:41
12211,2,A,A,1,14000,291485,12,04-22-2015,10:12:41
12211,3,E,E,1,77978,276957,12,04-22-2015,10:12:41
12211,4,A,A,1,6299,198447,12,04-22-2015,10:12:41
12211,5,C,C,1,37138,191614,12,04-22-2015,10:12:41
12211,6,B,B,1,15201,153943,12,04-22-2015,10:12:41
12211,7,A,A,1,13223,138215,12,04-22-2015,10:12:41
12211,8,A,A,1,16116,124469,12,04-22-2015,10:12:41
12211,9,D,D,1,13326,107824,12,04-22-2015,10:12:41
12211,10,D,D,1,15368,93977,12,04-22-2015,10:12:41
12211,11,C,D,0,23671,78083,12,04-22-2015,10:12:41
12211,12,C,C,1,10693,53873,12,04-22-2015,10:12:41
12211,13,D,D,1,25030,42660,12,04-22-2015,10:12:41
12216,1,A,C,0,4627,300000,4,04-23-2015,09:18:45
12216,2,A,B,0,7215,294768,4,04-23-2015,09:18:45
12216,3,E,B,0,11754,287020,4,04-23-2015,09:18:45
12216,4,A,A,1,7578,274741,4,04-23-2015,09:18:45
12216,5,C,B,0,10024,266642,4,04-23-2015,09:18:45
12216,6,B,B,1,10332,256096,4,04-23-2015,09:18:45
12216,7,A,D,0,13764,245233,4,04-23-2015,09:18:45
12216,8,A,C,0,14859,230937,4,04-23-2015,09:18:45
12216,9,D,B,0,24663,215558,4,04-23-2015,09:18:45
12216,10,D,D,1,14629,190366,4,04-23-2015,09:18:45
12216,11,C,D,0,16282,175203,4,04-23-2015,09:18:45
12216,12,C,B,0,10430,158392,4,04-23-2015,09:18:45
12216,13,D,A,0,18746,147428,4,04-23-2015,09:18:45
12216,14,E,A,0,11635,128151,4,04-23-2015,09:18:45
12216,15,B,B,1,14055,115988,4,04-23-2015,09:18:45
12218,1,A,A,1,7335,300000,6,04-23-2015,15:11:21
12218,2,A,A,1,7349,292053,6,04-23-2015,15:11:21
12218,3,E,D,0,26787,284172,6,04-23-2015,15:11:21
12218,4,A,A,1,6422,256863,6,04-23-2015,15:11:21
12218,5,C,D,0,23793,249914,6,04-23-2015,15:11:21
12218,6,B,B,1,7610,225589,6,04-23-2015,15:11:21
12218,7,A,A,1,8351,217458,6,04-23-2015,15:11:21
12218,8,A,B,0,25932,208578,6,04-23-2015,15:11:21
12218,9,D,B,0,25511,182119,6,04-23-2015,15:11:21
12218,10,D,C,0,26068,156076,6,04-23-2015,15:11:21
12218,11,C,B,0,27266,129485,6,04-23-2015,15:11:21
12218,12,C,B,0,5458,101693,6,04-23-2015,15:11:21
12218,13,D,A,0,8652,95711,6,04-23-2015,15:11:21
12218,14,E,A,0,20102,86531,6,04-23-2015,15:11:21
12218,15,B,B,1,16434,65904,6,04-23-2015,15:11:21
12220,1,A,A,1,3938,300000,12,04-23-2015,11:07:47
12220,2,A,A,1,10184,295451,12,04-23-2015,11:07:47
12220,3,E,E,1,10126,284738,12,04-23-2015,11:07:47
12220,4,A,A,1,10359,274091,12,04-23-2015,11:07:47
12220,5,C,C,1,35340,263211,12,04-23-2015,11:07:47
12220,6,B,B,1,6667,227338,12,04-23-2015,11:07:47
12220,7,A,A,1,22780,220140,12,04-23-2015,11:07:47
12220,8,A,A,1,13741,196831,12,04-23-2015,11:07:47
12220,9,D,D,1,100257,182568,12,04-23-2015,11:07:47
12220,10,D,D,1,8997,81782,12,04-23-2015,11:07:47
12220,11,C,C,1,57728,72251,12,04-23-2015,11:07:47
12222,1,A,A,1,5014,300000,13,04-28-2015,09:16:43
12222,2,A,A,1,8264,294368,13,04-28-2015,09:16:43
12222,3,E,E,1,12578,285571,13,04-28-2015,09:16:43
12222,4,A,A,1,10474,272458,13,04-28-2015,09:16:43
12222,5,C,C,1,22627,261461,13,04-28-2015,09:16:43
12222,6,B,B,1,7690,238302,13,04-28-2015,09:16:43
12222,7,A,A,1,10884,230088,13,04-28-2015,09:16:43
12222,8,A,A,1,16406,218674,13,04-28-2015,09:16:43
12222,9,D,D,1,38059,201746,13,04-28-2015,09:16:43
12222,10,D,D,1,21253,163158,13,04-28-2015,09:16:43
12222,11,C,C,1,44785,141381,13,04-28-2015,09:16:43
12222,12,C,C,1,12640,96062,13,04-28-2015,09:16:43
12222,13,D,D,1,77673,82899,13,04-28-2015,09:16:43
12223,1,A,A,1,19798,300000,7,04-28-2015,16:14:17
12223,2,A,A,1,12495,279573,7,04-28-2015,16:14:17
12223,3,E,E,1,22855,266544,7,04-28-2015,16:14:17
12223,4,A,A,1,39157,243168,7,04-28-2015,16:14:17
12223,5,C,C,1,24027,203479,7,04-28-2015,16:14:17
12223,6,B,B,1,10715,178920,7,04-28-2015,16:14:17
12223,7,A,D,0,35018,167673,7,04-28-2015,16:14:17
12223,8,A,B,0,55924,132134,7,04-28-2015,16:14:17
12223,9,D,D,1,21936,75684,7,04-28-2015,16:14:17
12225,1,A,C,0,7241,300000,4,04-28-2015,10:44:05
12225,2,A,B,0,30780,292152,4,04-28-2015,10:44:05
12225,3,E,D,0,56276,260845,4,04-28-2015,10:44:05
12225,4,A,A,1,13467,204045,4,04-28-2015,10:44:05
12225,5,C,C,1,6336,190048,4,04-28-2015,10:44:05
12225,6,B,B,1,18014,183184,4,04-28-2015,10:44:05
12225,7,A,A,1,25100,164640,4,04-28-2015,10:44:05
12225,8,A,D,0,36584,139013,4,04-28-2015,10:44:05
12225,9,D,B,0,15837,101908,4,04-28-2015,10:44:05
12225,10,D,C,0,13363,85547,4,04-28-2015,10:44:05
12225,11,C,A,0,21041,71651,4,04-28-2015,10:44:05
12225,12,C,B,0,14184,50074,4,04-28-2015,10:44:05
12225,13,D,A,0,10935,35361,4,04-28-2015,10:44:05
12225,14,E,A,0,12151,23898,4,04-28-2015,10:44:05
12225,15,B,C,0,10902,11219,4,04-28-2015,10:44:05
12227,1,A,A,1,23399,300000,5,04-27-2015,13:17:48
12227,2,A,A,1,10352,275991,5,04-27-2015,13:17:48
12227,3,E,E,1,51917,265111,5,04-27-2015,13:17:48
12227,4,A,A,1,41112,212660,5,04-27-2015,13:17:48
12227,5,C,D,0,90757,171021,5,04-27-2015,13:17:48
12227,6,B,B,1,15586,79733,5,04-27-2015,13:17:48
12227,7,A,D,0,31416,63621,5,04-27-2015,13:17:48
12230,1,A,A,1,10536,300000,8,05-01-2015,15:27:29
12230,2,A,A,1,10384,288837,8,05-01-2015,15:27:29
12230,3,E,E,1,62674,277924,8,05-01-2015,15:27:29
12230,4,A,A,1,47234,214726,8,05-01-2015,15:27:29
12230,5,C,C,1,15583,166957,8,05-01-2015,15:27:29
12230,6,B,B,1,23863,150845,8,05-01-2015,15:27:29
12230,7,A,A,1,14397,126452,8,05-01-2015,15:27:29
12230,8,A,A,1,35818,111524,8,05-01-2015,15:27:29
12235,1,A,A,1,7764,300000,12,06-08-2015,15:16:00
12235,2,A,A,1,9602,291619,12,06-08-2015,15:16:00
12235,3,E,E,1,21974,281489,12,06-08-2015,15:16:00
12235,4,A,A,1,4960,258979,12,06-08-2015,15:16:00
12235,5,C,B,0,48236,253497,12,06-08-2015,15:16:00
12235,6,B,B,1,8642,204729,12,06-08-2015,15:16:00
12235,7,A,A,1,12469,195565,12,06-08-2015,15:16:00
12235,8,A,A,1,8873,182569,12,06-08-2015,15:16:00
12235,9,D,D,1,24650,173171,12,06-08-2015,15:16:00
12235,10,D,D,1,16761,147995,12,06-08-2015,15:16:00
12235,11,C,C,1,58878,130701,12,06-08-2015,15:16:00
12235,12,C,C,1,17278,71286,12,06-08-2015,15:16:00
12235,13,D,D,1,14250,53474,12,06-08-2015,15:16:00
12236,1,A,E,0,34369,300000,2,04-28-2015,13:29:24
12236,2,A,E,0,22125,265026,2,04-28-2015,13:29:24
12236,3,E,B,0,53767,242367,2,04-28-2015,13:29:24
12236,4,A,B,0,28264,188067,2,04-28-2015,13:29:24
12236,5,C,D,0,37591,159274,2,04-28-2015,13:29:24
12236,6,B,A,0,24227,121153,2,04-28-2015,13:29:24
12236,7,A,D,0,21331,96394,2,04-28-2015,13:29:24
12236,8,A,D,0,20301,74534,2,04-28-2015,13:29:24
12236,9,D,D,1,20984,53707,2,04-28-2015,13:29:24
12237,1,A,A,1,17343,300000,5,04-29-2015,11:39:09
12237,2,A,A,1,10096,282038,5,04-29-2015,11:39:09
12237,3,E,E,1,33447,271408,5,04-29-2015,11:39:09
12237,4,A,A,1,6978,237435,5,04-29-2015,11:39:09
12237,5,C,B,0,40293,229937,5,04-29-2015,11:39:09
12237,6,B,B,1,7624,189116,5,04-29-2015,11:39:09
12237,7,A,D,0,17796,180968,5,04-29-2015,11:39:09
12237,8,A,D,0,32330,162640,5,04-29-2015,11:39:09
12237,9,D,B,0,44590,129783,5,04-29-2015,11:39:09
12237,10,D,C,0,26893,84663,5,04-29-2015,11:39:09
12237,11,C,D,0,13882,57238,5,04-29-2015,11:39:09
12237,12,C,B,0,9901,42826,5,04-29-2015,11:39:09
12238,1,A,A,1,16512,300000,3,04-30-2015,12:51:49
12238,2,A,A,1,23025,282871,3,04-30-2015,12:51:49
12238,3,E,B,0,27240,259312,3,04-30-2015,12:51:49
12238,4,A,A,1,13688,231536,3,04-30-2015,12:51:49
12238,5,C,D,0,26617,217323,3,04-30-2015,12:51:49
12238,6,B,C,0,20411,190182,3,04-30-2015,12:51:49
12238,7,A,D,0,20402,169238,3,04-30-2015,12:51:49
12238,8,A,D,0,14106,148311,3,04-30-2015,12:51:49
12238,9,D,B,0,6029,133682,3,04-30-2015,12:51:49
12238,10,D,E,0,5671,127134,3,04-30-2015,12:51:49
12238,11,C,D,0,13953,120936,3,04-30-2015,12:51:49
12238,12,C,B,0,28168,106457,3,04-30-2015,12:51:49
12238,13,D,B,0,17444,77765,3,04-30-2015,12:51:49
12238,14,E,A,0,8153,59787,3,04-30-2015,12:51:49
12238,15,B,D,0,33886,51106,3,04-30-2015,12:51:49
12239,1,A,A,1,6706,300000,9,05-01-2015,16:20:49
12239,2,A,A,1,5427,292686,9,05-01-2015,16:20:49
12239,3,E,B,0,51603,286738,9,05-01-2015,16:20:49
12239,4,A,A,1,7621,234604,9,05-01-2015,16:20:49
12239,5,C,C,1,85700,226455,9,05-01-2015,16:20:49
12239,6,B,B,1,8251,140232,9,05-01-2015,16:20:49
12239,7,A,A,1,11629,131452,9,05-01-2015,16:20:49
12239,8,A,A,1,9650,119289,9,05-01-2015,16:20:49
12239,9,D,D,1,29635,109109,9,05-01-2015,16:20:49
12239,10,D,D,1,27461,78951,9,05-01-2015,16:20:49
12240,1,A,A,1,17358,300000,6,04-30-2015,10:03:09
12240,2,A,A,1,12399,282022,6,04-30-2015,10:03:09
12240,3,E,D,0,112455,269093,6,04-30-2015,10:03:09
12240,4,A,A,1,25102,156109,6,04-30-2015,10:03:09
12240,5,C,C,1,50514,130484,6,04-30-2015,10:03:09
12240,6,B,B,1,9934,79449,6,04-30-2015,10:03:09
12240,7,A,D,0,24717,68985,6,04-30-2015,10:03:09
12240,8,A,A,1,21801,43743,6,04-30-2015,10:03:09
12241,1,A,D,0,8275,300000,5,05-04-2015,15:11:16
12241,2,A,B,0,5606,291119,5,05-04-2015,15:11:16
12241,3,E,B,0,14569,284988,5,05-04-2015,15:11:16
12241,4,A,A,1,13297,269892,5,05-04-2015,15:11:16
12241,5,C,B,0,6746,256063,5,05-04-2015,15:11:16
12241,6,B,B,1,8457,248782,5,05-04-2015,15:11:16
12241,7,A,A,1,4965,239801,5,05-04-2015,15:11:16
12241,8,A,C,0,6185,234303,5,05-04-2015,15:11:16
12241,9,D,B,0,4199,227588,5,05-04-2015,15:11:16
12241,10,D,E,0,14314,222856,5,05-04-2015,15:11:16
12241,11,C,D,0,12915,208011,5,05-04-2015,15:11:16
12241,12,C,C,1,2397,194565,5,05-04-2015,15:11:16
12241,13,D,A,0,4825,191648,5,05-04-2015,15:11:16
12241,14,E,B,0,690,186300,5,05-04-2015,15:11:16
12241,15,B,B,1,17328,174954,5,05-04-2015,15:11:16
12242,1,A,A,1,6739,300000,5,05-04-2015,15:12:20
12242,2,A,A,1,8738,292652,5,05-04-2015,15:12:20
12242,3,E,B,0,13610,283388,5,05-04-2015,15:12:20
12242,4,A,A,1,2728,269258,5,05-04-2015,15:12:20
12242,5,C,C,1,9326,266010,5,05-04-2015,15:12:20
12242,6,B,C,0,4023,256163,5,05-04-2015,15:12:20
12242,7,A,D,0,9738,251614,5,05-04-2015,15:12:20
12242,8,A,C,0,4170,241350,5,05-04-2015,15:12:20
12242,9,D,C,0,12494,236652,5,05-04-2015,15:12:20
12242,10,D,A,0,5777,223622,5,05-04-2015,15:12:20
12242,11,C,B,0,16286,217324,5,05-04-2015,15:12:20
12242,12,C,C,1,3978,200513,5,05-04-2015,15:12:20
12242,13,D,A,0,6382,196014,5,05-04-2015,15:12:20
12242,14,E,B,0,10811,189099,5,05-04-2015,15:12:20
12242,15,B,C,0,5953,177769,5,05-04-2015,15:12:20
12243,1,A,D,0,10829,300000,1,05-01-2015,14:03:49
12243,2,A,A,1,15377,288553,1,05-01-2015,14:03:49
12243,3,E,A,0,15512,272642,1,05-01-2015,14:03:49
12243,4,A,E,0,8427,256596,1,05-01-2015,14:03:49
12243,5,C,D,0,6590,247632,1,05-01-2015,14:03:49
12243,6,B,A,0,15226,240518,1,05-01-2015,14:03:49
12243,7,A,D,0,9504,224756,1,05-01-2015,14:03:49
12243,8,A,B,0,13665,214726,1,05-01-2015,14:03:49
12243,9,D,B,0,15324,200530,1,05-01-2015,14:03:49
12243,10,D,E,0,10694,184685,1,05-01-2015,14:03:49
12243,11,C,B,0,18527,173455,1,05-01-2015,14:03:49
12243,12,C,A,0,7818,154394,1,05-01-2015,14:03:49
12243,13,D,A,0,12710,146046,1,05-01-2015,14:03:49
12243,14,E,A,0,10775,132817,1,05-01-2015,14:03:49
12243,15,B,D,0,6863,121520,1,05-01-2015,14:03:49
12244,1,A,B,0,12057,300000,5,05-04-2015,11:11:31
12244,2,A,A,1,16732,287337,5,05-04-2015,11:11:31
12244,3,E,A,0,14166,270075,5,05-04-2015,11:11:31
12244,4,A,A,1,8758,255380,5,05-04-2015,11:11:31
12244,5,C,B,0,30507,246099,5,05-04-2015,11:11:31
12244,6,B,B,1,8674,215058,5,05-04-2015,11:11:31
12244,7,A,D,0,42419,205861,5,05-04-2015,11:11:31
12244,8,A,A,1,33607,162907,5,05-04-2015,11:11:31
12244,9,D,D,1,12186,128767,5,05-04-2015,11:11:31
12244,10,D,A,0,51862,116055,5,05-04-2015,11:11:31
12244,11,C,D,0,12220,63654,5,05-04-2015,11:11:31
12244,12,C,A,0,8081,50907,5,05-04-2015,11:11:31
12244,13,D,A,0,29849,42293,5,05-04-2015,11:11:31
12245,1,A,A,1,5247,300000,13,05-22-2015,09:40:50
12245,2,A,A,1,6273,294135,13,05-22-2015,09:40:50
12245,3,E,E,1,18098,287337,13,05-22-2015,09:40:50
12245,4,A,A,1,10741,268710,13,05-22-2015,09:40:50
12245,5,C,C,1,19829,257445,13,05-22-2015,09:40:50
12245,6,B,B,1,14627,237086,13,05-22-2015,09:40:50
12245,7,A,A,1,9505,221924,13,05-22-2015,09:40:50
12245,8,A,A,1,27681,211893,13,05-22-2015,09:40:50
12245,9,D,C,0,40653,183685,13,05-22-2015,09:40:50
12245,10,D,D,1,15553,142496,13,05-22-2015,09:40:50
12245,11,C,C,1,36256,126419,13,05-22-2015,09:40:50
12245,12,C,C,1,9987,89630,13,05-22-2015,09:40:50
12245,13,D,D,1,26040,79116,13,05-22-2015,09:40:50
12245,14,E,C,0,27350,52541,13,05-22-2015,09:40:50
12246,1,A,A,1,11940,300000,7,05-05-2015,11:17:31
12246,2,A,A,1,12061,287437,7,05-05-2015,11:17:31
12246,3,E,E,1,68860,274841,7,05-05-2015,11:17:31
12246,4,A,A,1,31959,205445,7,05-05-2015,11:17:31
12246,5,C,C,1,94294,172954,7,05-05-2015,11:17:31
12246,6,B,A,0,4616,78133,7,05-05-2015,11:17:31
12246,7,A,A,1,30433,72985,7,05-05-2015,11:17:31
12246,8,A,A,1,38362,42027,7,05-05-2015,11:17:31
12247,1,A,A,1,6152,300000,6,05-04-2015,12:06:59
12247,2,A,A,1,13182,293235,6,05-04-2015,12:06:59
12247,3,E,E,1,39411,279523,6,05-04-2015,12:06:59
12247,4,A,A,1,11208,239585,6,05-04-2015,12:06:59
12247,5,C,C,1,7494,227854,6,05-04-2015,12:06:59
12247,6,B,C,0,263,219841,6,05-04-2015,12:06:59
12247,7,A,A,1,336,219058,6,05-04-2015,12:06:59
12247,8,A,E,0,254,218191,6,05-04-2015,12:06:59
12247,9,D,C,0,951,217408,6,05-04-2015,12:06:59
12247,10,D,B,0,380,215925,6,05-04-2015,12:06:59
12247,11,C,E,0,408,215026,6,05-04-2015,12:06:59
12247,12,C,D,0,419,214093,6,05-04-2015,12:06:59
12247,13,D,C,0,317,213143,6,05-04-2015,12:06:59
12247,14,E,B,0,292,212293,6,05-04-2015,12:06:59
12247,15,B,A,0,267,211477,6,05-04-2015,12:06:59
12249,1,A,A,1,12059,300000,8,05-11-2015,13:18:03
12249,2,A,A,1,8118,287321,8,05-11-2015,13:18:03
12249,3,E,C,0,17550,278674,8,05-11-2015,13:18:03
12249,4,A,A,1,10215,260596,8,05-11-2015,13:18:03
12249,5,C,D,0,43906,249848,8,05-11-2015,13:18:03
12249,6,B,B,1,15021,205413,8,05-11-2015,13:18:03
12249,7,A,A,1,16554,189868,8,05-11-2015,13:18:03
12249,8,A,E,0,23306,172772,8,05-11-2015,13:18:03
12249,9,D,C,0,11015,148947,8,05-11-2015,13:18:03
12249,10,D,D,1,18179,137400,8,05-11-2015,13:18:03
12249,11,C,D,0,6076,118690,8,05-11-2015,13:18:03
12249,12,C,C,1,14805,112092,8,05-11-2015,13:18:03
12249,13,D,A,0,10187,96764,8,05-11-2015,13:18:03
12249,14,E,C,0,11025,86050,8,05-11-2015,13:18:03
12249,15,B,B,1,5614,74504,8,05-11-2015,13:18:03
12250,1,A,A,1,4509,300000,4,05-11-2015,09:47:22
12250,2,A,A,1,10278,294885,4,05-11-2015,09:47:22
12250,3,E,C,0,5888,284088,4,05-11-2015,09:47:22
12250,4,A,A,1,7513,277674,4,05-11-2015,09:47:22
12250,5,C,D,0,4849,269626,4,05-11-2015,09:47:22
12250,6,B,B,1,8811,264244,4,05-11-2015,09:47:22
12250,7,A,D,0,13647,254913,4,05-11-2015,09:47:22
12250,8,A,E,0,12899,240735,4,05-11-2015,09:47:22
12250,9,D,A,0,5598,227305,4,05-11-2015,09:47:22
12250,10,D,B,0,2850,221174,4,05-11-2015,09:47:22
12250,11,C,B,0,2060,217791,4,05-11-2015,09:47:22
12250,12,C,A,0,2604,215209,4,05-11-2015,09:47:22
12250,13,D,A,0,1160,212076,4,05-11-2015,09:47:22
12250,14,E,C,0,1677,210394,4,05-11-2015,09:47:22
12250,15,B,D,0,14141,208194,4,05-11-2015,09:47:22
12251,1,A,A,1,7343,300000,6,05-11-2015,09:45:47
12251,2,A,B,0,11558,292036,6,05-11-2015,09:45:47
12251,3,E,E,1,7182,279956,6,05-11-2015,09:45:47
12251,4,A,A,1,6651,272242,6,05-11-2015,09:45:47
12251,5,C,B,0,14596,265061,6,05-11-2015,09:45:47
12251,6,B,D,0,3499,249932,6,05-11-2015,09:45:47
12251,7,A,D,0,6907,245900,6,05-11-2015,09:45:47
12251,8,A,A,1,8811,238469,6,05-11-2015,09:45:47
12251,9,D,B,0,8393,229138,6,05-11-2015,09:45:47
12251,10,D,C,0,10045,220207,6,05-11-2015,09:45:47
12251,11,C,C,1,3769,209627,6,05-11-2015,09:45:47
12251,12,C,C,1,4150,205328,6,05-11-2015,09:45:47
12251,13,D,B,0,7859,200647,6,05-11-2015,09:45:47
12251,14,E,B,0,6094,192266,6,05-11-2015,09:45:47
12251,15,B,C,0,7262,185651,6,05-11-2015,09:45:47
12252,1,A,A,1,23577,300000,6,05-11-2015,09:59:29
12252,2,A,A,1,16523,275807,6,05-11-2015,09:59:29
12252,3,E,A,0,82705,258762,6,05-11-2015,09:59:29
12252,4,A,A,1,9471,175521,6,05-11-2015,09:59:29
12252,5,C,B,0,52990,165523,6,05-11-2015,09:59:29
12252,6,B,B,1,10896,112007,6,05-11-2015,09:59:29
12252,7,A,A,1,22777,100577,6,05-11-2015,09:59:29
12252,8,A,A,1,60463,77268,6,05-11-2015,09:59:29
12253,1,A,A,1,5105,300000,9,05-12-2015,10:21:38
12253,2,A,A,1,6081,294285,9,05-12-2015,10:21:38
12253,3,E,E,1,38648,287671,9,05-12-2015,10:21:38
12253,4,A,A,1,18731,248499,9,05-12-2015,10:21:38
12253,5,C,C,1,46580,229237,9,05-12-2015,10:21:38
12253,6,B,B,1,15124,182135,9,05-12-2015,10:21:38
12253,7,A,A,1,7998,166490,9,05-12-2015,10:21:38
12253,8,A,A,1,61895,157959,9,05-12-2015,10:21:38
12253,9,D,D,1,27503,95528,9,05-12-2015,10:21:38
12253,10,D,C,0,17325,67502,9,05-12-2015,10:21:38
12254,1,A,A,1,12153,300000,6,05-08-2015,11:58:41
12254,2,A,A,1,21672,287221,6,05-08-2015,11:58:41
12254,3,E,D,0,55627,265027,6,05-08-2015,11:58:41
12254,4,A,A,1,5397,208877,6,05-08-2015,11:58:41
12254,5,C,C,1,40247,202946,6,05-08-2015,11:58:41
12254,6,B,B,1,10147,162174,6,05-08-2015,11:58:41
12254,7,A,A,1,20570,151494,6,05-08-2015,11:58:41
12254,8,A,B,0,26250,130401,6,05-08-2015,11:58:41
12254,9,D,C,0,26034,103625,6,05-08-2015,11:58:41
12254,10,D,A,0,5578,77066,6,05-08-2015,11:58:41
12254,11,C,B,0,37590,70968,6,05-08-2015,11:58:41
12254,12,C,B,0,14938,32846,6,05-08-2015,11:58:41
12255,1,A,A,1,11232,300000,8,05-29-2015,09:44:11
12255,2,A,A,1,6227,288153,8,05-29-2015,09:44:11
12255,3,E,E,1,68316,281405,8,05-29-2015,09:44:11
12255,4,A,A,1,16541,212558,8,05-29-2015,09:44:11
12255,5,C,C,1,35933,195497,8,05-29-2015,09:44:11
12255,6,B,B,1,11588,159041,8,05-29-2015,09:44:11
12255,7,A,A,1,12314,146928,8,05-29-2015,09:44:11
12255,8,A,A,1,37882,134081,8,05-29-2015,09:44:11
12256,1,A,A,1,17144,300000,9,05-11-2015,13:16:54
12256,2,A,A,1,7753,282239,9,05-11-2015,13:16:54
12256,3,E,E,1,58780,273958,9,05-11-2015,13:16:54
12256,4,A,A,1,7889,214642,9,05-11-2015,13:16:54
12256,5,C,C,1,24985,206228,9,05-11-2015,13:16:54
12256,6,B,B,1,20371,180719,9,05-11-2015,13:16:54
12256,7,A,A,1,20860,159825,9,05-11-2015,13:16:54
12256,8,A,A,1,32216,138432,9,05-11-2015,13:16:54
12256,9,D,C,0,54240,105692,9,05-11-2015,13:16:54
12256,10,D,D,1,42343,50925,9,05-11-2015,13:16:54
12257,1,A,A,1,6447,300000,7,05-11-2015,13:12:38
12257,2,A,A,1,6368,292935,7,05-11-2015,13:12:38
12257,3,E,E,1,52516,286037,7,05-11-2015,13:12:38
12257,4,A,A,1,17136,232986,7,05-11-2015,13:12:38
12257,5,C,C,1,57630,215325,7,05-11-2015,13:12:38
12257,6,B,B,1,10952,157159,7,05-11-2015,13:12:38
12257,7,A,A,1,43701,145679,7,05-11-2015,13:12:38
12257,8,A,B,0,32415,101442,7,05-11-2015,13:12:38
12258,1,A,A,1,5761,300000,10,05-12-2015,09:08:26
12258,2,A,A,1,9119,293635,10,05-12-2015,09:08:26
12258,3,E,E,1,10968,283988,10,05-12-2015,09:08:26
12258,4,A,A,1,14006,272492,10,05-12-2015,09:08:26
12258,5,C,B,0,32531,257963,10,05-12-2015,09:08:26
12258,6,B,B,1,5761,224906,10,05-12-2015,09:08:26
12258,7,A,A,1,9120,218624,10,05-12-2015,09:08:26
12258,8,A,A,1,13032,208977,10,05-12-2015,09:08:26
12258,9,D,C,0,55345,195415,10,05-12-2015,09:08:26
12258,10,D,D,1,67667,139548,10,05-12-2015,09:08:26
12258,11,C,C,1,29644,71352,10,05-12-2015,09:08:26
12258,12,C,C,1,30700,41178,10,05-12-2015,09:08:26
12259,1,A,A,1,18436,300000,4,05-12-2015,14:26:13
12259,2,A,B,0,6267,280940,4,05-12-2015,14:26:13
12259,3,E,C,0,5196,274142,4,05-12-2015,14:26:13
12259,4,A,D,0,2513,268427,4,05-12-2015,14:26:13
12259,5,C,D,0,12279,265395,4,05-12-2015,14:26:13
12259,6,B,B,1,2298,252582,4,05-12-2015,14:26:13
12259,7,A,D,0,2962,249749,4,05-12-2015,14:26:13
12259,8,A,D,0,2168,246267,4,05-12-2015,14:26:13
12259,9,D,D,1,3188,243568,4,05-12-2015,14:26:13
12259,10,D,E,0,2232,239852,4,05-12-2015,14:26:13
12259,11,C,B,0,2698,237087,4,05-12-2015,14:26:13
12259,12,C,B,0,2778,233854,4,05-12-2015,14:26:13
12259,13,D,A,0,7095,230555,4,05-12-2015,14:26:13
12259,14,E,C,0,3175,222941,4,05-12-2015,14:26:13
12259,15,B,B,1,8316,219242,4,05-12-2015,14:26:13
12260,1,A,A,1,17375,300000,6,05-12-2015,14:29:39
12260,2,A,B,0,13783,282022,6,05-12-2015,14:29:39
12260,3,E,B,0,17734,267709,6,05-12-2015,14:29:39
12260,4,A,A,1,13351,249448,6,05-12-2015,14:29:39
12260,5,C,C,1,3688,235568,6,05-12-2015,14:29:39
12260,6,B,B,1,16248,231353,6,05-12-2015,14:29:39
12260,7,A,C,0,15828,214575,6,05-12-2015,14:29:39
12260,8,A,A,1,14714,198213,6,05-12-2015,14:29:39
12260,9,D,B,0,12043,182968,6,05-12-2015,14:29:39
12260,10,D,B,0,19583,170387,6,05-12-2015,14:29:39
12260,11,C,B,0,14687,150277,6,05-12-2015,14:29:39
12260,12,C,A,0,8683,135065,6,05-12-2015,14:29:39
12260,13,D,A,0,12388,125851,6,05-12-2015,14:29:39
12260,14,E,B,0,4627,112938,6,05-12-2015,14:29:39
12260,15,B,B,1,4038,107790,6,05-12-2015,14:29:39
12261,1,A,A,1,18666,300000,10,05-12-2015,13:30:00
12261,2,A,A,1,6583,280723,10,05-12-2015,13:30:00
12261,3,E,E,1,44970,273608,10,05-12-2015,13:30:00
12261,4,A,A,1,12002,228106,10,05-12-2015,13:30:00
12261,5,C,C,1,22176,215575,10,05-12-2015,13:30:00
12261,6,B,B,1,9737,192866,10,05-12-2015,13:30:00
12261,7,A,D,0,20696,182603,10,05-12-2015,13:30:00
12261,8,A,A,1,20475,161376,10,05-12-2015,13:30:00
12261,9,D,B,0,28087,140366,10,05-12-2015,13:30:00
12261,10,D,D,1,52771,111758,10,05-12-2015,13:30:00
12261,11,C,C,1,34317,58457,10,05-12-2015,13:30:00
12261,12,C,C,1,12517,23618,10,05-12-2015,13:30:00
12262,1,A,A,1,20402,300000,6,05-12-2015,11:58:23
12262,2,A,B,0,17297,278990,6,05-12-2015,11:58:23
12262,3,E,E,1,61145,261162,6,05-12-2015,11:58:23
12262,4,A,A,1,13751,199481,6,05-12-2015,11:58:23
12262,5,C,C,1,19111,185202,6,05-12-2015,11:58:23
12262,6,B,B,1,16130,165558,6,05-12-2015,11:58:23
12262,7,A,A,1,13148,148896,6,05-12-2015,11:58:23
12262,8,A,D,0,45233,135217,6,05-12-2015,11:58:23
12262,9,D,B,0,39037,89448,6,05-12-2015,11:58:23
12263,1,A,A,1,71651,300000,3,05-18-2015,14:24:51
12263,2,A,A,1,35998,227738,3,05-18-2015,14:24:51
12263,3,E,B,0,159267,191215,3,05-18-2015,14:24:51
12263,4,A,A,1,28830,31412,3,05-18-2015,14:24:51
12264,1,A,A,1,8706,300000,10,05-12-2015,13:34:39
12264,2,A,A,1,9306,290670,10,05-12-2015,13:34:39
12264,3,E,E,1,31338,280840,10,05-12-2015,13:34:39
12264,4,A,A,1,6528,248966,10,05-12-2015,13:34:39
12264,5,C,D,0,32366,241917,10,05-12-2015,13:34:39
12264,6,B,B,1,7787,209028,10,05-12-2015,13:34:39
12264,7,A,D,0,17416,200713,10,05-12-2015,13:34:39
12264,8,A,A,1,31013,182769,10,05-12-2015,13:34:39
12264,9,D,B,0,42598,151228,10,05-12-2015,13:34:39
12264,10,D,D,1,24052,108107,10,05-12-2015,13:34:39
12264,11,C,B,0,24090,83532,10,05-12-2015,13:34:39
12264,12,C,C,1,7672,58906,10,05-12-2015,13:34:39
12264,13,D,D,1,18634,50708,10,05-12-2015,13:34:39
12264,14,E,E,1,29031,31547,10,05-12-2015,13:34:39
12266,1,A,A,1,9065,300000,9,05-14-2015,16:14:07
12266,2,A,A,1,10172,290320,9,05-14-2015,16:14:07
12266,3,E,E,1,29161,279623,9,05-14-2015,16:14:07
12266,4,A,A,1,21549,249932,9,05-14-2015,16:14:07
12266,5,C,C,1,109338,227854,9,05-14-2015,16:14:07
12266,6,B,B,1,17069,117987,9,05-14-2015,16:14:07
12266,7,A,D,0,14809,100392,9,05-14-2015,16:14:07
12266,8,A,A,1,50206,85062,9,05-14-2015,16:14:07
12267,1,A,A,1,19378,300000,5,05-13-2015,11:21:01
12267,2,A,A,1,10010,280006,5,05-13-2015,11:21:01
12267,3,E,D,0,123857,269476,5,05-13-2015,11:21:01
12267,4,A,A,1,26499,145080,5,05-13-2015,11:21:01
12267,5,C,D,0,27912,118053,5,05-13-2015,11:21:01
12267,6,B,B,1,12078,89613,5,05-13-2015,11:21:01
12267,7,A,A,1,62758,77000,5,05-13-2015,11:21:01
12269,1,A,A,1,5939,300000,5,06-18-2015,10:06:24
12269,2,A,A,1,15170,293452,5,06-18-2015,10:06:24
12269,3,E,C,0,16641,277757,5,06-18-2015,10:06:24
12269,4,A,B,0,17878,260595,5,06-18-2015,10:06:24
12269,5,C,B,0,20186,242183,5,06-18-2015,10:06:24
12269,6,B,B,1,10811,221474,5,06-18-2015,10:06:24
12269,7,A,D,0,26710,210128,5,06-18-2015,10:06:24
12269,8,A,D,0,22019,182886,5,06-18-2015,10:06:24
12269,9,D,B,0,38610,160343,5,06-18-2015,10:06:24
12269,10,D,D,1,24605,121204,5,06-18-2015,10:06:24
12269,11,C,D,0,28309,96062,5,06-18-2015,10:06:24
