Subject,Trial,Answer,Response,Accuracy,RT,TimeLeft,TotalScore,SessionDate,SessionTime
12000,1,E,E,1,9717,600000,16,02-18-2015,12:10:55
12000,2,G,G,1,5237,589654,16,02-18-2015,12:10:55
12000,3,C,C,1,5879,583872,16,02-18-2015,12:10:55
12000,4,F,F,1,6624,577440,16,02-18-2015,12:10:55
12000,5,H,H,1,5187,570276,16,02-18-2015,12:10:55
12000,6,E,E,1,9670,564561,16,02-18-2015,12:10:55
12000,7,B,B,1,18624,554348,16,02-18-2015,12:10:55
12000,8,B,B,1,14310,535186,16,02-18-2015,12:10:55
12000,9,F,F,1,6217,520342,16,02-18-2015,12:10:55
12000,10,C,C,1,13036,513577,16,02-18-2015,12:10:55
12000,11,H,H,1,15799,500015,16,02-18-2015,12:10:55
12000,12,F,F,1,18462,483685,16,02-18-2015,12:10:55
12000,13,G,G,1,12811,464692,16,02-18-2015,12:10:55
12000,14,G,G,1,9912,451346,16,02-18-2015,12:10:55
12000,15,F,G,0,29095,440900,16,02-18-2015,12:10:55
12000,16,D,D,1,32100,411274,16,02-18-2015,12:10:55
12000,17,E,E,1,21251,378636,16,02-18-2015,12:10:55
12000,18,C,A,0,47799,356859,16,02-18-2015,12:10:55
12002,1,E,E,1,9016,600000,13,02-18-2015,15:09:29
12002,2,G,G,1,15628,590369,13,02-18-2015,15:09:29
12002,3,C,C,1,9521,574208,13,02-18-2015,15:09:29
12002,4,F,F,1,7681,564160,13,02-18-2015,15:09:29
12002,5,H,H,1,6083,555946,13,02-18-2015,15:09:29
12002,6,E,E,1,11171,549332,13,02-18-2015,15:09:29
12002,7,B,G,0,27257,537635,13,02-18-2015,15:09:29
12002,8,B,B,1,17977,509843,13,02-18-2015,15:09:29
12002,9,F,F,1,17441,491333,13,02-18-2015,15:09:29
12002,10,C,C,1,25446,473371,13,02-18-2015,15:09:29
12002,11,H,H,1,39355,447397,13,02-18-2015,15:09:29
12002,12,F,F,1,32041,407509,13,02-18-2015,15:09:29
12002,13,G,G,1,48760,374936,13,02-18-2015,15:09:29
12002,14,G,F,0,64871,325651,13,02-18-2015,15:09:29
12002,15,F,E,0,59806,260255,13,02-18-2015,15:09:29
12002,16,D,H,0,42952,199922,13,02-18-2015,15:09:29
12002,17,E,E,1,74588,156437,13,02-18-2015,15:09:29
12002,18,C,A,0,61137,81327,13,02-18-2015,15:09:29
12006,1,E,E,1,19771,600000,15,02-20-2015,09:24:30
12006,2,G,G,1,11413,579622,15,02-20-2015,09:24:30
12006,3,C,C,1,6113,567676,15,02-20-2015,09:24:30
12006,4,F,F,1,19408,561028,15,02-20-2015,09:24:30
12006,5,H,H,1,5000,541084,15,02-20-2015,09:24:30
12006,6,E,E,1,10603,535552,15,02-20-2015,09:24:30
12006,7,B,B,1,19872,524422,15,02-20-2015,09:24:30
12006,8,B,B,1,24149,504028,15,02-20-2015,09:24:30
12006,9,F,F,1,28279,479352,15,02-20-2015,09:24:30
12006,10,C,C,1,64028,450543,15,02-20-2015,09:24:30
12006,11,H,H,1,33869,385979,15,02-20-2015,09:24:30
12006,12,F,F,1,65027,351572,15,02-20-2015,09:24:30
12006,13,G,D,0,49453,286008,15,02-20-2015,09:24:30
12006,14,G,G,1,62343,236023,15,02-20-2015,09:24:30
12006,15,F,F,1,63763,173141,15,02-20-2015,09:24:30
12006,16,D,D,1,77748,108842,15,02-20-2015,09:24:30
12008,1,E,E,1,15095,600000,14,02-20-2015,12:16:50
12008,2,G,G,1,8763,584288,14,02-20-2015,12:16:50
12008,3,C,C,1,13136,574991,14,02-20-2015,12:16:50
12008,4,F,F,1,17137,561327,14,02-20-2015,12:16:50
12008,5,H,H,1,5955,543667,14,02-20-2015,12:16:50
12008,6,E,E,1,7977,537185,14,02-20-2015,12:16:50
12008,7,B,B,1,20542,528688,14,02-20-2015,12:16:50
12008,8,B,B,1,30687,507611,14,02-20-2015,12:16:50
12008,9,F,C,0,63124,476403,14,02-20-2015,12:16:50
12008,10,C,C,1,21571,412755,14,02-20-2015,12:16:50
12008,11,H,H,1,29396,390661,14,02-20-2015,12:16:50
12008,12,F,F,1,19246,360736,14,02-20-2015,12:16:50
12008,13,G,G,1,64473,340959,14,02-20-2015,12:16:50
12008,14,G,G,1,29410,275962,14,02-20-2015,12:16:50
12008,15,F,B,0,44122,246020,14,02-20-2015,12:16:50
12008,16,D,D,1,99807,201366,14,02-20-2015,12:16:50
12008,17,E,B,0,87385,101029,14,02-20-2015,12:16:50
12010,1,E,E,1,21434,600000,16,02-20-2015,13:27:58
12010,2,G,G,1,10227,577856,16,02-20-2015,13:27:58
12010,3,C,C,1,9557,566992,16,02-20-2015,13:27:58
12010,4,F,F,1,24345,556828,16,02-20-2015,13:27:58
12010,5,H,H,1,11039,531903,16,02-20-2015,13:27:58
12010,6,E,E,1,7294,520223,16,02-20-2015,13:27:58
12010,7,B,B,1,18825,512274,16,02-20-2015,13:27:58
12010,8,B,B,1,23338,492746,16,02-20-2015,13:27:58
12010,9,F,F,1,12024,468770,16,02-20-2015,13:27:58
12010,10,C,F,0,28929,456090,16,02-20-2015,13:27:58
12010,11,H,H,1,24336,426532,16,02-20-2015,13:27:58
12010,12,F,F,1,27429,401539,16,02-20-2015,13:27:58
12010,13,G,G,1,41143,373447,16,02-20-2015,13:27:58
12010,14,G,G,1,47287,331625,16,02-20-2015,13:27:58
12010,15,F,F,1,34067,283655,16,02-20-2015,13:27:58
12010,16,D,D,1,90287,248897,16,02-20-2015,13:27:58
12012,1,E,E,1,26412,600000,14,02-20-2015,14:41:23
12012,2,G,G,1,17502,572975,14,02-20-2015,14:41:23
12012,3,C,C,1,11721,554947,14,02-20-2015,14:41:23
12012,4,F,F,1,17794,542699,14,02-20-2015,14:41:23
12012,5,H,H,1,5026,524372,14,02-20-2015,14:41:23
12012,6,E,E,1,13268,518824,14,02-20-2015,14:41:23
12012,7,B,B,1,18695,505028,14,02-20-2015,14:41:23
12012,8,B,B,1,26234,485800,14,02-20-2015,14:41:23
12012,9,F,F,1,74503,459041,14,02-20-2015,14:41:23
12012,10,C,C,1,10243,384013,14,02-20-2015,14:41:23
12012,11,H,H,1,30789,373250,14,02-20-2015,14:41:23
12012,12,F,F,1,37839,341926,14,02-20-2015,14:41:23
12012,13,G,H,0,116701,303553,14,02-20-2015,14:41:23
12012,14,G,E,0,71200,186321,14,02-20-2015,14:41:23
12012,15,F,F,1,84210,114592,14,02-20-2015,14:41:23
12013,1,E,E,1,10587,600000,16,02-20-2015,15:57:12
12013,2,G,G,1,7497,588802,16,02-20-2015,15:57:12
12013,3,C,C,1,7714,580772,16,02-20-2015,15:57:12
12013,4,F,B,0,8457,572524,16,02-20-2015,15:57:12
12013,5,H,H,1,11460,563544,16,02-20-2015,15:57:12
12013,6,E,E,1,7231,551547,16,02-20-2015,15:57:12
12013,7,B,B,1,17817,543784,16,02-20-2015,15:57:12
12013,8,B,B,1,11872,525438,16,02-20-2015,15:57:12
12013,9,F,F,1,13251,513043,16,02-20-2015,15:57:12
12013,10,C,C,1,7856,499263,16,02-20-2015,15:57:12
12013,11,H,H,1,25289,490883,16,02-20-2015,15:57:12
12013,12,F,F,1,22254,465075,16,02-20-2015,15:57:12
12013,13,G,G,1,13709,442298,16,02-20-2015,15:57:12
12013,14,G,G,1,27598,428069,16,02-20-2015,15:57:12
12013,15,F,G,0,56365,399945,16,02-20-2015,15:57:12
12013,16,D,D,1,80020,343045,16,02-20-2015,15:57:12
12013,17,E,E,1,31460,262487,16,02-20-2015,15:57:12
12013,18,C,C,1,15981,230497,16,02-20-2015,15:57:12
12014,1,E,E,1,11856,600000,13,02-23-2015,09:31:23
12014,2,G,G,1,8340,587537,13,02-23-2015,09:31:23
12014,3,C,C,1,7826,578673,13,02-23-2015,09:31:23
12014,4,F,B,0,10582,570291,13,02-23-2015,09:31:23
12014,5,H,C,0,21130,559179,13,02-23-2015,09:31:23
12014,6,E,E,1,23692,537486,13,02-23-2015,09:31:23
12014,7,B,B,1,20441,513259,13,02-23-2015,09:31:23
12014,8,B,B,1,15398,492283,13,02-23-2015,09:31:23
12014,9,F,F,1,16901,476355,13,02-23-2015,09:31:23
12014,10,C,B,0,35639,458927,13,02-23-2015,09:31:23
12014,11,H,H,1,77621,422755,13,02-23-2015,09:31:23
12014,12,F,F,1,82953,344611,13,02-23-2015,09:31:23
12014,13,G,G,1,33100,261138,13,02-23-2015,09:31:23
12014,14,G,G,1,56825,227515,13,02-23-2015,09:31:23
12014,15,F,E,0,85773,170166,13,02-23-2015,09:31:23
12014,16,D,D,1,62334,83858,13,02-23-2015,09:31:23
12015,1,E,E,1,23245,600000,13,02-23-2015,12:28:28
12015,2,G,G,1,25227,576141,13,02-23-2015,12:28:28
12015,3,C,C,1,7964,550381,13,02-23-2015,12:28:28
12015,4,F,F,1,20201,541884,13,02-23-2015,12:28:28
12015,5,H,H,1,16561,521157,13,02-23-2015,12:28:28
12015,6,E,E,1,13370,504063,13,02-23-2015,12:28:28
12015,7,B,B,1,34543,490166,13,02-23-2015,12:28:28
12015,8,B,H,0,26933,455094,13,02-23-2015,12:28:28
12015,9,F,F,1,51414,427636,13,02-23-2015,12:28:28
12015,10,C,C,1,11880,375686,13,02-23-2015,12:28:28
12015,11,H,H,1,42895,363272,13,02-23-2015,12:28:28
12015,12,F,F,1,63503,319852,13,02-23-2015,12:28:28
12015,13,G,G,1,32334,255822,13,02-23-2015,12:28:28
12015,14,G,H,0,82000,222966,13,02-23-2015,12:28:28
12015,15,F,C,0,103756,140441,13,02-23-2015,12:28:28
12016,1,E,E,1,8611,600000,12,02-23-2015,14:19:45
12016,2,G,G,1,9944,590769,12,02-23-2015,14:19:45
12016,3,C,C,1,5862,580289,12,02-23-2015,14:19:45
12016,4,F,F,1,15168,573907,12,02-23-2015,14:19:45
12016,5,H,H,1,8984,558212,12,02-23-2015,14:19:45
12016,6,E,E,1,9838,548698,12,02-23-2015,14:19:45
12016,7,B,F,0,54631,538334,12,02-23-2015,14:19:45
12016,8,B,H,0,18567,483166,12,02-23-2015,14:19:45
12016,9,F,F,1,35558,464073,12,02-23-2015,14:19:45
12016,10,C,E,0,13365,427983,12,02-23-2015,14:19:45
12016,11,H,D,0,56441,414087,12,02-23-2015,14:19:45
12016,12,F,F,1,30657,357121,12,02-23-2015,14:19:45
12016,13,G,G,1,40328,325930,12,02-23-2015,14:19:45
12016,14,G,G,1,93205,285075,12,02-23-2015,14:19:45
12016,15,F,A,0,107675,191336,12,02-23-2015,14:19:45
12016,16,D,D,1,78492,83133,12,02-23-2015,14:19:45
12018,1,E,E,1,14049,600000,14,02-23-2015,16:26:48
12018,2,G,G,1,6196,585338,14,02-23-2015,16:26:48
12018,3,C,C,1,8264,578557,14,02-23-2015,16:26:48
12018,4,F,F,1,9560,569758,14,02-23-2015,16:26:48
12018,5,H,H,1,11784,559646,14,02-23-2015,16:26:48
12018,6,E,E,1,12086,547333,14,02-23-2015,16:26:48
12018,7,B,B,1,33886,534703,14,02-23-2015,16:26:48
12018,8,B,H,0,9934,500280,14,02-23-2015,16:26:48
12018,9,F,F,1,19725,489800,14,02-23-2015,16:26:48
12018,10,C,C,1,36886,469540,14,02-23-2015,16:26:48
12018,11,H,H,1,1123,432118,14,02-23-2015,16:26:48
12018,12,F,F,1,17144,409625,14,02-23-2015,16:26:48
12018,13,G,G,1,22137,391947,14,02-23-2015,16:26:48
12018,14,G,G,1,21420,369287,14,02-23-2015,16:26:48
12018,15,F,G,0,16035,347344,14,02-23-2015,16:26:48
12018,16,D,D,1,28704,330781,14,02-23-2015,16:26:48
12018,17,E,C,0,27989,301558,14,02-23-2015,16:26:48
12018,18,C,D,0,29247,273033,14,02-23-2015,16:26:48
12021,1,E,E,1,13559,600000,16,02-24-2015,15:17:39
12021,2,G,G,1,6728,585837,16,02-24-2015,15:17:39
12021,3,C,C,1,6966,578573,16,02-24-2015,15:17:39
12021,4,F,F,1,13245,571074,16,02-24-2015,15:17:39
12021,5,H,H,1,4688,557296,16,02-24-2015,15:17:39
12021,6,E,E,1,9609,552081,16,02-24-2015,15:17:39
12021,7,B,B,1,41989,541950,16,02-24-2015,15:17:39
12021,8,B,B,1,27250,499428,16,02-24-2015,15:17:39
12021,9,F,F,1,12898,471654,16,02-24-2015,15:17:39
12021,10,C,C,1,72536,458225,16,02-24-2015,15:17:39
12021,11,H,H,1,22377,385163,16,02-24-2015,15:17:39
12021,12,F,F,1,38785,362253,16,02-24-2015,15:17:39
12021,13,G,G,1,149143,322931,16,02-24-2015,15:17:39
12021,14,G,G,1,19925,173258,16,02-24-2015,15:17:39
12021,15,F,F,1,72925,152796,16,02-24-2015,15:17:39
12022,1,E,E,1,39139,600000,8,02-26-2015,12:20:19
12022,2,G,G,1,21466,560244,8,02-26-2015,12:20:19
12022,3,C,A,0,8408,538250,8,02-26-2015,12:20:19
12022,4,F,F,1,20604,529320,8,02-26-2015,12:20:19
12022,5,H,H,1,14732,508193,8,02-26-2015,12:20:19
12022,6,E,E,1,19701,492931,8,02-26-2015,12:20:19
12022,7,B,E,0,39239,472704,8,02-26-2015,12:20:19
12022,8,B,B,1,39738,432931,8,02-26-2015,12:20:19
12022,9,F,C,0,54927,392660,8,02-26-2015,12:20:19
12022,10,C,C,1,17475,337210,8,02-26-2015,12:20:19
12022,11,H,D,0,37190,319198,8,02-26-2015,12:20:19
12022,12,F,C,0,52361,281475,8,02-26-2015,12:20:19
12022,13,G,D,0,34378,228592,8,02-26-2015,12:20:19
12022,14,G,D,0,63533,193685,8,02-26-2015,12:20:19
12022,15,F,C,0,75160,129620,8,02-26-2015,12:20:19
12023,1,E,G,0,16555,600000,6,02-26-2015,13:24:05
12023,2,G,G,1,8731,582822,6,02-26-2015,13:24:05
12023,3,C,G,0,16010,573525,6,02-26-2015,13:24:05
12023,4,F,F,1,24854,556979,6,02-26-2015,13:24:05
12023,5,H,H,1,9518,531588,6,02-26-2015,13:24:05
12023,6,E,E,1,15166,521541,6,02-26-2015,13:24:05
12023,7,B,B,1,20942,505846,6,02-26-2015,13:24:05
12023,8,B,F,0,17894,484369,6,02-26-2015,13:24:05
12023,9,F,F,1,6570,465909,6,02-26-2015,13:24:05
12023,10,C,E,0,20942,458811,6,02-26-2015,13:24:05
12023,11,H,B,0,19985,437334,6,02-26-2015,13:24:05
12023,12,F,H,0,22312,416824,6,02-26-2015,13:24:05
12023,13,G,A,0,18300,393981,6,02-26-2015,13:24:05
12023,14,G,D,0,15294,375153,6,02-26-2015,13:24:05
12023,15,F,G,0,16432,359292,6,02-26-2015,13:24:05
12023,16,D,C,0,25636,342296,6,02-26-2015,13:24:05
12023,17,E,C,0,14757,316138,6,02-26-2015,13:24:05
12023,18,C,E,0,26660,300860,6,02-26-2015,13:24:05
12024,1,E,E,1,13046,600000,11,02-26-2015,15:15:27
12024,2,G,G,1,9578,586337,11,02-26-2015,15:15:27
12024,3,C,C,1,6832,576224,11,02-26-2015,15:15:27
12024,4,F,F,1,12059,568859,11,02-26-2015,15:15:27
12024,5,H,A,0,15901,556263,11,02-26-2015,15:15:27
12024,6,E,E,1,8201,539834,11,02-26-2015,15:15:27
12024,7,B,H,0,16701,531104,11,02-26-2015,15:15:27
12024,8,B,B,1,20664,513874,11,02-26-2015,15:15:27
12024,9,F,F,1,14085,492681,11,02-26-2015,15:15:27
12024,10,C,C,1,12328,478069,11,02-26-2015,15:15:27
12024,11,H,A,0,28184,465206,11,02-26-2015,15:15:27
12024,12,F,H,0,24929,436498,11,02-26-2015,15:15:27
12024,13,G,G,1,17886,411039,11,02-26-2015,15:15:27
12024,14,G,E,0,33568,392627,11,02-26-2015,15:15:27
12024,15,F,B,0,42364,358537,11,02-26-2015,15:15:27
12024,16,D,D,1,29746,315650,11,02-26-2015,15:15:27
12024,17,E,E,1,25751,285375,11,02-26-2015,15:15:27
12024,18,C,A,0,54064,259100,11,02-26-2015,15:15:27
12025,1,E,E,1,16436,600000,12,02-26-2015,16:01:55
12025,2,G,G,1,13186,582955,12,02-26-2015,16:01:55
12025,3,C,C,1,11321,569243,12,02-26-2015,16:01:55
12025,4,F,F,1,26017,557396,12,02-26-2015,16:01:55
12025,5,H,H,1,13834,530855,12,02-26-2015,16:01:55
12025,6,E,E,1,24734,516492,12,02-26-2015,16:01:55
12025,7,B,B,1,32241,491233,12,02-26-2015,16:01:55
12025,8,B,B,1,37113,458459,12,02-26-2015,16:01:55
12025,9,F,F,1,15817,420822,12,02-26-2015,16:01:55
12025,10,C,C,1,23350,404477,12,02-26-2015,16:01:55
12025,11,H,D,0,27201,380601,12,02-26-2015,16:01:55
12025,12,F,F,1,31282,352876,12,02-26-2015,16:01:55
12025,13,G,A,0,45023,321069,12,02-26-2015,16:01:55
12025,14,G,D,0,24677,275517,12,02-26-2015,16:01:55
12025,15,F,A,0,27418,250308,12,02-26-2015,16:01:55
12025,16,D,E,0,47025,222366,12,02-26-2015,16:01:55
12025,17,E,E,1,66844,174815,12,02-26-2015,16:01:55
12025,18,C,A,0,13920,107436,12,02-26-2015,16:01:55
12027,1,E,E,1,14683,600000,9,02-27-2015,12:41:23
12027,2,G,G,1,15910,584705,9,02-27-2015,12:41:23
12027,3,C,C,1,13736,568259,9,02-27-2015,12:41:23
12027,4,F,F,1,46990,553996,9,02-27-2015,12:41:23
12027,5,H,H,1,55348,506478,9,02-27-2015,12:41:23
12027,6,E,E,1,73165,450594,9,02-27-2015,12:41:23
12027,7,B,B,1,65034,376899,9,02-27-2015,12:41:23
12027,8,B,B,1,88153,311335,9,02-27-2015,12:41:23
12027,9,F,F,1,40196,222661,9,02-27-2015,12:41:23
12027,10,C,E,0,35089,181940,9,02-27-2015,12:41:23
12027,11,H,A,0,54055,146317,9,02-27-2015,12:41:23
12028,1,E,E,1,26528,600000,12,02-27-2015,13:32:01
12028,2,G,G,1,11652,572841,12,02-27-2015,13:32:01
12028,3,C,C,1,11712,560660,12,02-27-2015,13:32:01
12028,4,F,F,1,19665,548413,12,02-27-2015,13:32:01
12028,5,H,H,1,8966,528218,12,02-27-2015,13:32:01
12028,6,E,E,1,16771,518721,12,02-27-2015,13:32:01
12028,7,B,E,0,15492,501425,12,02-27-2015,13:32:01
12028,8,B,B,1,17119,485411,12,02-27-2015,13:32:01
12028,9,F,F,1,17857,467767,12,02-27-2015,13:32:01
12028,10,C,G,0,33294,449388,12,02-27-2015,13:32:01
12028,11,H,H,1,33733,415563,12,02-27-2015,13:32:01
12028,12,F,F,1,32314,381305,12,02-27-2015,13:32:01
12028,13,G,G,1,29992,348463,12,02-27-2015,13:32:01
12028,14,G,F,0,14034,317938,12,02-27-2015,13:32:01
12028,15,F,E,0,22735,303375,12,02-27-2015,13:32:01
12028,16,D,D,1,47073,280113,12,02-27-2015,13:32:01
12028,17,E,C,0,44244,232509,12,02-27-2015,13:32:01
12028,18,C,A,0,14175,187737,12,02-27-2015,13:32:01
12029,1,E,E,1,23735,600000,13,02-27-2015,14:24:32
12029,2,G,G,1,28857,575657,13,02-27-2015,14:24:32
12029,3,C,C,1,22095,546216,13,02-27-2015,14:24:32
12029,4,F,F,1,20910,523571,13,02-27-2015,14:24:32
12029,5,H,H,1,9967,501995,13,02-27-2015,14:24:32
12029,6,E,E,1,15213,491448,13,02-27-2015,14:24:32
12029,7,B,B,1,45630,475686,13,02-27-2015,14:24:32
12029,8,B,F,0,46455,429448,13,02-27-2015,14:24:32
12029,9,F,C,0,30810,382379,13,02-27-2015,14:24:32
12029,10,C,C,1,24728,351022,13,02-27-2015,14:24:32
12029,11,H,C,0,37817,325646,13,02-27-2015,14:24:32
12029,12,F,F,1,30587,287274,13,02-27-2015,14:24:32
12029,13,G,G,1,37210,256133,13,02-27-2015,14:24:32
12029,14,G,G,1,48548,218327,13,02-27-2015,14:24:32
12029,15,F,F,1,73326,169208,13,02-27-2015,14:24:32
12030,1,E,E,1,18504,600000,16,02-27-2015,14:34:31
12030,2,G,G,1,8036,580888,16,02-27-2015,14:34:31
12030,3,C,C,1,7661,572324,16,02-27-2015,14:34:31
12030,4,F,F,1,18024,564108,16,02-27-2015,14:34:31
12030,5,H,H,1,7823,545564,16,02-27-2015,14:34:31
12030,6,E,E,1,12810,537216,16,02-27-2015,14:34:31
12030,7,B,B,1,23784,523885,16,02-27-2015,14:34:31
12030,8,B,B,1,33024,499575,16,02-27-2015,14:34:31
12030,9,F,F,1,14403,466018,16,02-27-2015,14:34:31
12030,10,C,C,1,17320,451089,16,02-27-2015,14:34:31
12030,11,H,H,1,46122,433243,16,02-27-2015,14:34:31
12030,12,F,F,1,25675,386588,16,02-27-2015,14:34:31
12030,13,G,G,1,34048,360379,16,02-27-2015,14:34:31
12030,14,G,G,1,44329,325805,16,02-27-2015,14:34:31
12030,15,F,G,0,60360,280950,16,02-27-2015,14:34:31
12030,16,D,D,1,142600,220065,16,02-27-2015,14:34:31
12033,1,E,E,1,15167,600000,10,02-27-2015,16:30:52
12033,2,G,G,1,12991,584221,10,02-27-2015,16:30:52
12033,3,C,C,1,22789,570708,10,02-27-2015,16:30:52
12033,4,F,F,1,14478,547397,10,02-27-2015,16:30:52
12033,5,H,H,1,6921,532386,10,02-27-2015,16:30:52
12033,6,E,E,1,17120,524938,10,02-27-2015,16:30:52
12033,7,B,G,0,14603,507293,10,02-27-2015,16:30:52
12033,8,B,B,1,15025,492164,10,02-27-2015,16:30:52
12033,9,F,F,1,17767,476618,10,02-27-2015,16:30:52
12033,10,C,H,0,12895,458324,10,02-27-2015,16:30:52
12033,11,H,D,0,17153,444894,10,02-27-2015,16:30:52
12033,12,F,B,0,12226,427216,10,02-27-2015,16:30:52
12033,13,G,G,1,19654,414453,10,02-27-2015,16:30:52
12033,14,G,C,0,34035,394275,10,02-27-2015,16:30:52
12033,15,F,G,0,37244,359719,10,02-27-2015,16:30:52
12033,16,D,E,0,68749,321945,10,02-27-2015,16:30:52
12033,17,E,B,0,65265,252666,10,02-27-2015,16:30:52
12033,18,C,C,1,32465,186869,10,02-27-2015,16:30:52
12034,1,E,E,1,74084,600000,5,03-02-2015,10:42:32
12034,2,G,G,1,93797,525302,5,03-02-2015,10:42:32
12034,3,C,C,1,93877,430976,5,03-02-2015,10:42:32
12034,4,F,B,0,63219,336565,5,03-02-2015,10:42:32
12034,5,H,H,1,89755,272816,5,03-02-2015,10:42:32
12034,6,E,G,0,93581,182538,5,03-02-2015,10:42:32
12035,1,E,E,1,27620,600000,11,03-02-2015,11:08:36
12035,2,G,G,1,50010,571758,11,03-02-2015,11:08:36
12035,3,C,C,1,22617,521223,11,03-02-2015,11:08:36
12035,4,F,F,1,18912,498045,11,03-02-2015,11:08:36
12035,5,H,H,1,17875,478602,11,03-02-2015,11:08:36
12035,6,E,E,1,16679,460190,11,03-02-2015,11:08:36
12035,7,B,B,1,36449,442978,11,03-02-2015,11:08:36
12035,8,B,B,1,24003,406006,11,03-02-2015,11:08:36
12035,9,F,C,0,16508,381480,11,03-02-2015,11:08:36
12035,10,C,C,1,29535,364451,11,03-02-2015,11:08:36
12035,11,H,D,0,24300,334393,11,03-02-2015,11:08:36
12035,12,F,E,0,31895,309567,11,03-02-2015,11:08:36
12035,13,G,H,0,29909,277143,11,03-02-2015,11:08:36
12035,14,G,F,0,62249,246702,11,03-02-2015,11:08:36
12035,15,F,F,1,55264,183920,11,03-02-2015,11:08:36
12035,16,D,C,0,91980,128119,11,03-02-2015,11:08:36
12038,1,E,E,1,13461,600000,4,03-02-2015,13:22:13
12038,2,G,H,0,28858,585821,4,03-02-2015,13:22:13
12038,3,C,C,1,20227,556280,4,03-02-2015,13:22:13
12038,4,F,D,0,13413,535352,4,03-02-2015,13:22:13
12038,5,H,G,0,40019,521291,4,03-02-2015,13:22:13
12038,6,E,E,1,21377,480603,4,03-02-2015,13:22:13
12038,7,B,E,0,18573,458543,4,03-02-2015,13:22:13
12038,8,B,E,0,22773,439315,4,03-02-2015,13:22:13
12038,9,F,C,0,10736,415790,4,03-02-2015,13:22:13
12038,10,C,H,0,15353,404360,4,03-02-2015,13:22:13
12038,11,H,D,0,10690,388315,4,03-02-2015,13:22:13
12038,12,F,G,0,9879,376917,4,03-02-2015,13:22:13
12038,13,G,H,0,13603,366388,4,03-02-2015,13:22:13
12038,14,G,A,0,28819,352126,4,03-02-2015,13:22:13
12038,15,F,H,0,7760,322635,4,03-02-2015,13:22:13
12038,16,D,E,0,20263,314203,4,03-02-2015,13:22:13
12038,17,E,E,1,24037,293260,4,03-02-2015,13:22:13
12038,18,C,D,0,3432,268535,4,03-02-2015,13:22:13
12039,1,E,E,1,10966,600000,4,03-02-2015,13:26:34
12039,2,G,G,1,31189,588419,4,03-02-2015,13:26:34
12039,3,C,C,1,21943,556710,4,03-02-2015,13:26:34
12039,4,F,D,0,31906,534232,4,03-02-2015,13:26:34
12039,5,H,G,0,14968,501807,4,03-02-2015,13:26:34
12039,6,E,D,0,19095,486312,4,03-02-2015,13:26:34
12039,7,B,B,1,8299,466683,4,03-02-2015,13:26:34
12039,8,B,D,0,3460,457851,4,03-02-2015,13:26:34
12039,9,F,G,0,6333,453870,4,03-02-2015,13:26:34
12039,10,C,H,0,9460,447005,4,03-02-2015,13:26:34
12039,11,H,A,0,8456,437024,4,03-02-2015,13:26:34
12039,12,F,E,0,4914,428043,4,03-02-2015,13:26:34
12039,13,G,C,0,23114,422594,4,03-02-2015,13:26:34
12039,14,G,C,0,4062,398950,4,03-02-2015,13:26:34
12039,15,F,B,0,23631,394368,4,03-02-2015,13:26:34
12039,16,D,A,0,9558,370207,4,03-02-2015,13:26:34
12039,17,E,B,0,28101,360127,4,03-02-2015,13:26:34
12039,18,C,A,0,9315,331501,4,03-02-2015,13:26:34
12040,1,E,E,1,10112,600000,3,03-02-2015,13:25:57
12040,2,G,H,0,8368,589269,3,03-02-2015,13:25:57
12040,3,C,C,1,11766,580372,3,03-02-2015,13:25:57
12040,4,F,E,0,12021,568074,3,03-02-2015,13:25:57
12040,5,H,F,0,7283,555529,3,03-02-2015,13:25:57
12040,6,E,G,0,6547,547715,3,03-02-2015,13:25:57
12040,7,B,D,0,12194,540633,3,03-02-2015,13:25:57
12040,8,B,D,0,37327,527920,3,03-02-2015,13:25:57
12040,9,F,D,0,5422,490065,3,03-02-2015,13:25:57
12040,10,C,E,0,6258,484116,3,03-02-2015,13:25:57
12040,11,H,D,0,3236,477335,3,03-02-2015,13:25:57
12040,12,F,F,1,5207,473569,3,03-02-2015,13:25:57
12040,13,G,F,0,8010,467838,3,03-02-2015,13:25:57
12040,14,G,C,0,10159,459307,3,03-02-2015,13:25:57
12040,15,F,G,0,7918,448627,3,03-02-2015,13:25:57
12040,16,D,E,0,7766,440179,3,03-02-2015,13:25:57
12040,17,E,H,0,7820,431881,3,03-02-2015,13:25:57
12040,18,C,D,0,5536,423534,3,03-02-2015,13:25:57
12041,1,E,E,1,24486,600000,14,03-02-2015,14:18:13
12041,2,G,G,1,12283,574907,14,03-02-2015,14:18:13
12041,3,C,C,1,6406,562094,14,03-02-2015,14:18:13
12041,4,F,B,0,11130,555162,14,03-02-2015,14:18:13
12041,5,H,H,1,6506,543483,14,03-02-2015,14:18:13
12041,6,E,E,1,16834,536452,14,03-02-2015,14:18:13
12041,7,B,B,1,32319,519090,14,03-02-2015,14:18:13
12041,8,B,B,1,40419,486250,14,03-02-2015,14:18:13
12041,9,F,F,1,15129,445295,14,03-02-2015,14:18:13
12041,10,C,C,1,30937,429633,14,03-02-2015,14:18:13
12041,11,H,H,1,59187,398176,14,03-02-2015,14:18:13
12041,12,F,F,1,33766,338460,14,03-02-2015,14:18:13
12041,13,G,G,1,27307,304170,14,03-02-2015,14:18:13
12041,14,G,G,1,68548,276328,14,03-02-2015,14:18:13
12041,15,F,G,0,100111,207232,14,03-02-2015,14:18:13
12043,1,E,E,1,15503,600000,11,03-02-2015,14:18:20
12043,2,G,G,1,7783,583838,11,03-02-2015,14:18:20
12043,3,C,C,1,7969,575440,11,03-02-2015,14:18:20
12043,4,F,B,0,19356,566875,11,03-02-2015,14:18:20
12043,5,H,A,0,20081,546932,11,03-02-2015,14:18:20
12043,6,E,E,1,17672,526205,11,03-02-2015,14:18:20
12043,7,B,E,0,14120,507877,11,03-02-2015,14:18:20
12043,8,B,B,1,30387,493113,11,03-02-2015,14:18:20
12043,9,F,F,1,9818,462056,11,03-02-2015,14:18:20
12043,10,C,C,1,21282,451593,11,03-02-2015,14:18:20
12043,11,H,H,1,15388,429699,11,03-02-2015,14:18:20
12043,12,F,A,0,34862,413704,11,03-02-2015,14:18:20
12043,13,G,G,1,31300,378214,11,03-02-2015,14:18:20
12043,14,G,G,1,20271,346323,11,03-02-2015,14:18:20
12043,15,F,C,0,35799,325429,11,03-02-2015,14:18:20
12043,16,D,F,0,68229,289023,11,03-02-2015,14:18:20
12043,17,E,E,1,84898,220159,11,03-02-2015,14:18:20
12043,18,C,D,0,82360,134634,11,03-02-2015,14:18:20
12047,1,E,E,1,47945,600000,9,03-02-2015,16:29:59
12047,2,G,G,1,10554,551445,9,03-02-2015,16:29:59
12047,3,C,C,1,12073,540366,9,03-02-2015,16:29:59
12047,4,F,F,1,27308,527768,9,03-02-2015,16:29:59
12047,5,H,H,1,9450,499926,9,03-02-2015,16:29:59
12047,6,E,E,1,15868,489946,9,03-02-2015,16:29:59
12047,7,B,E,0,32935,473550,9,03-02-2015,16:29:59
12047,8,B,B,1,21301,440091,9,03-02-2015,16:29:59
12047,9,F,F,1,32377,418264,9,03-02-2015,16:29:59
12047,10,C,C,1,28828,385356,9,03-02-2015,16:29:59
12047,11,H,E,0,40644,355997,9,03-02-2015,16:29:59
12047,12,F,H,0,39742,314824,9,03-02-2015,16:29:59
12047,13,G,H,0,25581,274552,9,03-02-2015,16:29:59
12047,14,G,E,0,79493,248442,9,03-02-2015,16:29:59
12047,15,F,B,0,29183,168413,9,03-02-2015,16:29:59
12047,16,D,E,0,49057,138703,9,03-02-2015,16:29:59
12047,17,E,B,0,16157,89117,9,03-02-2015,16:29:59
12047,18,C,B,0,54229,72438,9,03-02-2015,16:29:59
12048,1,E,A,0,12303,600000,3,03-03-2015,09:18:44
12048,2,G,C,0,11889,587087,3,03-03-2015,09:18:44
12048,3,C,C,1,7348,574674,3,03-03-2015,09:18:44
12048,4,F,F,1,8618,566792,3,03-03-2015,09:18:44
12048,5,H,F,0,32348,557646,3,03-03-2015,09:18:44
12048,6,E,C,0,11211,524772,3,03-03-2015,09:18:44
12048,7,B,F,0,23431,513042,3,03-03-2015,09:18:44
12048,8,B,H,0,11439,489083,3,03-03-2015,09:18:44
12048,9,F,C,0,14507,477120,3,03-03-2015,09:18:44
12048,10,C,E,0,25644,462091,3,03-03-2015,09:18:44
12048,11,H,G,0,7453,435915,3,03-03-2015,09:18:44
12048,12,F,H,0,20086,427934,3,03-03-2015,09:18:44
12048,13,G,F,0,6763,407324,3,03-03-2015,09:18:44
12048,14,G,F,0,9017,400026,3,03-03-2015,09:18:44
12048,15,F,B,0,15013,390479,3,03-03-2015,09:18:44
12048,16,D,D,1,52801,374933,3,03-03-2015,09:18:44
12048,17,E,F,0,25144,321599,3,03-03-2015,09:18:44
12048,18,C,A,0,7988,295923,3,03-03-2015,09:18:44
12049,1,E,E,1,26259,600000,12,03-03-2015,09:22:21
12049,2,G,G,1,15170,573123,12,03-03-2015,09:22:21
12049,3,C,F,0,6482,557427,12,03-03-2015,09:22:21
12049,4,F,F,1,17915,550411,12,03-03-2015,09:22:21
12049,5,H,H,1,7437,531967,12,03-03-2015,09:22:21
12049,6,E,E,1,8321,524002,12,03-03-2015,09:22:21
12049,7,B,H,0,18584,515154,12,03-03-2015,09:22:21
12049,8,B,H,0,25832,496043,12,03-03-2015,09:22:21
12049,9,F,F,1,31704,469683,12,03-03-2015,09:22:21
12049,10,C,C,1,18806,437457,12,03-03-2015,09:22:21
12049,11,H,D,0,25045,418129,12,03-03-2015,09:22:21
12049,12,F,C,0,29092,392552,12,03-03-2015,09:22:21
12049,13,G,G,1,43081,362926,12,03-03-2015,09:22:21
12049,14,G,G,1,20852,319320,12,03-03-2015,09:22:21
12049,15,F,F,1,30449,297942,12,03-03-2015,09:22:21
12049,16,D,G,0,38585,266967,12,03-03-2015,09:22:21
12049,17,E,E,1,53317,227843,12,03-03-2015,09:22:21
12049,18,C,C,1,52615,174006,12,03-03-2015,09:22:21
12050,1,E,E,1,9861,600000,5,03-03-2015,11:10:25
12050,2,G,G,1,21808,589520,5,03-03-2015,11:10:25
12050,3,C,A,0,22016,567192,5,03-03-2015,11:10:25
12050,4,F,F,1,66126,544647,5,03-03-2015,11:10:25
12050,5,H,A,0,46068,477999,5,03-03-2015,11:10:25
12050,6,E,G,0,5815,431393,5,03-03-2015,11:10:25
12050,7,B,F,0,77553,425046,5,03-03-2015,11:10:25
12050,8,B,G,0,3665,346965,5,03-03-2015,11:10:25
12050,9,F,F,1,10513,342751,5,03-03-2015,11:10:25
12050,10,C,E,0,32170,331704,5,03-03-2015,11:10:25
12050,11,H,G,0,3638,299012,5,03-03-2015,11:10:25
12050,12,F,F,1,6296,294846,5,03-03-2015,11:10:25
12050,13,G,C,0,1376,288015,5,03-03-2015,11:10:25
12050,14,G,C,0,28572,286115,5,03-03-2015,11:10:25
12050,15,F,A,0,2078,257006,5,03-03-2015,11:10:25
12050,16,D,H,0,2704,254389,5,03-03-2015,11:10:25
12050,17,E,B,0,1790,251158,5,03-03-2015,11:10:25
12050,18,C,E,0,1962,248842,5,03-03-2015,11:10:25
12051,1,E,E,1,29744,600000,6,03-03-2015,11:12:17
12051,2,G,G,1,12533,569643,6,03-03-2015,11:12:17
12051,3,C,A,0,18070,556580,6,03-03-2015,11:12:17
12051,4,F,F,1,14194,537985,6,03-03-2015,11:12:17
12051,5,H,E,0,30431,523240,6,03-03-2015,11:12:17
12051,6,E,E,1,28342,492283,6,03-03-2015,11:12:17
12051,7,B,E,0,19154,463375,6,03-03-2015,11:12:17
12051,8,B,E,0,15172,443680,6,03-03-2015,11:12:17
12051,9,F,D,0,11092,427986,6,03-03-2015,11:12:17
12051,10,C,C,1,33684,416373,6,03-03-2015,11:12:17
12051,11,H,D,0,21020,382167,6,03-03-2015,11:12:17
12051,12,F,F,1,36290,360606,6,03-03-2015,11:12:17
12051,13,G,H,0,26906,323785,6,03-03-2015,11:12:17
12051,14,G,D,0,35533,296326,6,03-03-2015,11:12:17
12051,15,F,E,0,29435,260271,6,03-03-2015,11:12:17
12051,16,D,G,0,28235,230296,6,03-03-2015,11:12:17
12051,17,E,H,0,16540,201539,6,03-03-2015,11:12:17
12051,18,C,B,0,22844,184477,6,03-03-2015,11:12:17
12052,1,E,E,1,32262,600000,13,03-03-2015,11:44:55
12052,2,G,G,1,14543,567127,13,03-03-2015,11:44:55
12052,3,C,C,1,14871,552048,13,03-03-2015,11:44:55
12052,4,F,F,1,26026,536651,13,03-03-2015,11:44:55
12052,5,H,H,1,11075,510093,13,03-03-2015,11:44:55
12052,6,E,E,1,18036,498497,13,03-03-2015,11:44:55
12052,7,B,E,0,15675,479936,13,03-03-2015,11:44:55
12052,8,B,H,0,31765,463740,13,03-03-2015,11:44:55
12052,9,F,F,1,18354,431433,13,03-03-2015,11:44:55
12052,10,C,C,1,48969,412556,13,03-03-2015,11:44:55
12052,11,H,H,1,18410,363054,13,03-03-2015,11:44:55
12052,12,F,F,1,40823,344108,13,03-03-2015,11:44:55
12052,13,G,G,1,46306,302755,13,03-03-2015,11:44:55
12052,14,G,G,1,44899,255919,13,03-03-2015,11:44:55
12052,15,F,E,0,76602,210498,13,03-03-2015,11:44:55
12053,1,E,E,1,13753,600000,7,03-03-2015,13:04:56
12053,2,G,G,1,14178,585637,7,03-03-2015,13:04:56
12053,3,C,C,1,15328,570925,7,03-03-2015,13:04:56
12053,4,F,B,0,21480,555062,7,03-03-2015,13:04:56
12053,5,H,H,1,14909,533019,7,03-03-2015,13:04:56
12053,6,E,G,0,13358,517590,7,03-03-2015,13:04:56
12053,7,B,B,1,26238,503694,7,03-03-2015,13:04:56
12053,8,B,B,1,18278,476934,7,03-03-2015,13:04:56
12053,9,F,F,1,14986,458124,7,03-03-2015,13:04:56
12053,10,C,A,0,30863,442612,7,03-03-2015,13:04:56
12053,11,H,D,0,10504,411221,7,03-03-2015,13:04:56
12053,12,F,A,0,12441,400191,7,03-03-2015,13:04:56
12053,13,G,A,0,30836,387228,7,03-03-2015,13:04:56
12053,14,G,D,0,10341,355837,7,03-03-2015,13:04:56
12053,15,F,H,0,11620,344973,7,03-03-2015,13:04:56
12053,16,D,H,0,47455,332793,7,03-03-2015,13:04:56
12053,17,E,H,0,10548,284807,7,03-03-2015,13:04:56
12053,18,C,A,0,19913,273727,7,03-03-2015,13:04:56
12057,1,E,E,1,30612,600000,12,03-03-2015,16:09:18
12057,2,G,G,1,12206,568775,12,03-03-2015,16:09:18
12057,3,C,C,1,11795,556045,12,03-03-2015,16:09:18
12057,4,F,F,1,26352,543716,12,03-03-2015,16:09:18
12057,5,H,H,1,5101,516840,12,03-03-2015,16:09:18
12057,6,E,E,1,22908,511208,12,03-03-2015,16:09:18
12057,7,B,B,1,37735,487765,12,03-03-2015,16:09:18
12057,8,B,B,1,17230,449509,12,03-03-2015,16:09:18
12057,9,F,F,1,72328,431748,12,03-03-2015,16:09:18
12057,10,C,D,0,46224,358886,12,03-03-2015,16:09:18
12057,11,H,H,1,41861,312132,12,03-03-2015,16:09:18
12057,12,F,F,1,28415,269745,12,03-03-2015,16:09:18
12057,13,G,E,0,87230,240803,12,03-03-2015,16:09:18
12057,14,G,D,0,82235,153045,12,03-03-2015,16:09:18
12058,1,E,E,1,18773,600000,15,03-03-2015,16:26:35
12058,2,G,G,1,11438,580622,15,03-03-2015,16:26:35
12058,3,C,C,1,33488,568659,15,03-03-2015,16:26:35
12058,4,F,F,1,23024,534635,15,03-03-2015,16:26:35
12058,5,H,H,1,12647,511076,15,03-03-2015,16:26:35
12058,6,E,E,1,14427,497897,15,03-03-2015,16:26:35
12058,7,B,B,1,24232,482934,15,03-03-2015,16:26:35
12058,8,B,B,1,30134,458174,15,03-03-2015,16:26:35
12058,9,F,C,0,10285,427517,15,03-03-2015,16:26:35
12058,10,C,C,1,28165,416704,15,03-03-2015,16:26:35
12058,11,H,H,1,73086,388012,15,03-03-2015,16:26:35
12058,12,F,C,0,84133,314401,15,03-03-2015,16:26:35
12058,13,G,G,1,26641,229742,15,03-03-2015,16:26:35
12058,14,G,G,1,15577,202567,15,03-03-2015,16:26:35
12058,15,F,C,0,63549,186455,15,03-03-2015,16:26:35
12058,16,D,D,1,49754,122374,15,03-03-2015,16:26:35
12058,17,E,E,1,24778,72089,15,03-03-2015,16:26:35
12058,18,C,C,1,39243,46780,15,03-03-2015,16:26:35
12059,1,E,E,1,26550,600000,10,03-03-2015,16:46:35
12059,2,G,G,1,14322,572842,10,03-03-2015,16:46:35
12059,3,C,C,1,39866,557996,10,03-03-2015,16:46:35
12059,4,F,F,1,23524,517608,10,03-03-2015,16:46:35
12059,5,H,C,0,61789,493550,10,03-03-2015,16:46:35
12059,6,E,E,1,57071,431236,10,03-03-2015,16:46:35
12059,7,B,B,1,55780,373637,10,03-03-2015,16:46:35
12059,8,B,B,1,27166,317321,10,03-03-2015,16:46:35
12059,9,F,F,1,20625,289629,10,03-03-2015,16:46:35
12059,10,C,C,1,48942,268469,10,03-03-2015,16:46:35
12059,11,H,A,0,40031,219001,10,03-03-2015,16:46:35
12059,12,F,E,0,41554,178447,10,03-03-2015,16:46:35
12059,13,G,D,0,36072,136360,10,03-03-2015,16:46:35
12059,14,G,A,0,47935,99755,10,03-03-2015,16:46:35
12059,15,F,E,0,31792,51286,10,03-03-2015,16:46:35
12060,1,E,E,1,13339,600000,12,03-04-2015,09:24:00
12060,2,G,G,1,5165,586054,12,03-04-2015,09:24:00
12060,3,C,C,1,5162,580356,12,03-04-2015,09:24:00
12060,4,F,F,1,8631,574673,12,03-04-2015,09:24:00
12060,5,H,H,1,3779,565494,12,03-04-2015,09:24:00
12060,6,E,E,1,8448,561195,12,03-04-2015,09:24:00
12060,7,B,E,0,10602,552215,12,03-04-2015,09:24:00
12060,8,B,B,1,10174,541067,12,03-04-2015,09:24:00
12060,9,F,C,0,10101,530355,12,03-04-2015,09:24:00
12060,10,C,C,1,7391,519725,12,03-04-2015,09:24:00
12060,11,H,D,0,21634,511811,12,03-04-2015,09:24:00
12060,12,F,F,1,14193,489650,12,03-04-2015,09:24:00
12060,13,G,D,0,20886,474906,12,03-04-2015,09:24:00
12060,14,G,E,0,14891,453496,12,03-04-2015,09:24:00
12060,15,F,F,1,13070,438083,12,03-04-2015,09:24:00
12060,16,D,G,0,16522,424487,12,03-04-2015,09:24:00
12060,17,E,E,1,38034,407444,12,03-04-2015,09:24:00
12060,18,C,C,1,21846,368872,12,03-04-2015,09:24:00
12061,1,E,E,1,75214,600000,7,03-04-2015,10:45:00
12061,2,G,G,1,17617,524155,7,03-04-2015,10:45:00
12061,3,C,C,1,22644,505911,7,03-04-2015,10:45:00
12061,4,F,F,1,54452,482650,7,03-04-2015,10:45:00
12061,5,H,A,0,51932,427567,7,03-04-2015,10:45:00
12061,6,E,E,1,23730,374966,7,03-04-2015,10:45:00
12061,7,B,F,0,38701,350573,7,03-04-2015,10:45:00
12061,8,B,H,0,41919,311200,7,03-04-2015,10:45:00
12061,9,F,F,1,28715,268596,7,03-04-2015,10:45:00
12061,10,C,G,0,56792,239222,7,03-04-2015,10:45:00
12061,11,H,A,0,50909,181772,7,03-04-2015,10:45:00
12061,12,F,H,0,47307,130219,7,03-04-2015,10:45:00
12061,13,G,H,0,52847,82284,7,03-04-2015,10:45:00
12062,1,E,E,1,13083,600000,5,03-04-2015,10:11:19
12062,2,G,G,1,38588,586304,5,03-04-2015,10:11:19
12062,3,C,C,1,13281,547183,5,03-04-2015,10:11:19
12062,4,F,F,1,28179,533369,5,03-04-2015,10:11:19
12062,5,H,D,0,19958,504662,5,03-04-2015,10:11:19
12062,6,E,G,0,8760,484184,5,03-04-2015,10:11:19
12062,7,B,E,0,9863,474905,5,03-04-2015,10:11:19
12062,8,B,A,0,18697,464508,5,03-04-2015,10:11:19
12062,9,F,D,0,30876,445280,5,03-04-2015,10:11:19
12062,10,C,D,0,11388,413873,5,03-04-2015,10:11:19
12062,11,H,G,0,5130,401960,5,03-04-2015,10:11:19
12062,12,F,F,1,8217,396295,5,03-04-2015,10:11:19
12062,13,G,H,0,7980,387548,5,03-04-2015,10:11:19
12062,14,G,A,0,13273,379034,5,03-04-2015,10:11:19
12062,15,F,A,0,30539,365238,5,03-04-2015,10:11:19
12062,16,D,F,0,10321,334163,5,03-04-2015,10:11:19
12062,17,E,C,0,14890,323317,5,03-04-2015,10:11:19
12062,18,C,B,0,10644,307905,5,03-04-2015,10:11:19
12063,1,E,E,1,32403,600000,15,03-04-2015,11:27:06
12063,2,G,G,1,9271,566976,15,03-04-2015,11:27:06
12063,3,C,C,1,9193,557179,15,03-04-2015,11:27:06
12063,4,F,B,0,16190,547464,15,03-04-2015,11:27:06
12063,5,H,H,1,16149,530754,15,03-04-2015,11:27:06
12063,6,E,E,1,11527,514075,15,03-04-2015,11:27:06
12063,7,B,B,1,25582,502029,15,03-04-2015,11:27:06
12063,8,B,B,1,15688,475919,15,03-04-2015,11:27:06
12063,9,F,F,1,13803,459708,15,03-04-2015,11:27:06
12063,10,C,H,0,32545,445379,15,03-04-2015,11:27:06
12063,11,H,H,1,17751,412305,15,03-04-2015,11:27:06
12063,12,F,F,1,23407,394027,15,03-04-2015,11:27:06
12063,13,G,G,1,14832,370101,15,03-04-2015,11:27:06
12063,14,G,F,0,28980,354739,15,03-04-2015,11:27:06
12063,15,F,F,1,42830,325231,15,03-04-2015,11:27:06
12063,16,D,D,1,35154,281877,15,03-04-2015,11:27:06
12063,17,E,E,1,57149,246188,15,03-04-2015,11:27:06
12063,18,C,C,1,18961,188505,15,03-04-2015,11:27:06
12064,1,E,E,1,19120,600000,14,03-04-2015,14:27:38
12064,2,G,G,1,11411,580272,14,03-04-2015,14:27:38
12064,3,C,C,1,15071,568326,14,03-04-2015,14:27:38
12064,4,F,F,1,10731,552730,14,03-04-2015,14:27:38
12064,5,H,H,1,22019,541467,14,03-04-2015,14:27:38
12064,6,E,E,1,10498,518924,14,03-04-2015,14:27:38
12064,7,B,E,0,14572,507894,14,03-04-2015,14:27:38
12064,8,B,B,1,43258,492798,14,03-04-2015,14:27:38
12064,9,F,F,1,10566,449011,14,03-04-2015,14:27:38
12064,10,C,E,0,69225,437915,14,03-04-2015,14:27:38
12064,11,H,H,1,36893,368168,14,03-04-2015,14:27:38
12064,12,F,F,1,74291,330746,14,03-04-2015,14:27:38
12064,13,G,G,1,27565,255935,14,03-04-2015,14:27:38
12064,14,G,G,1,53575,227843,14,03-04-2015,14:27:38
12064,15,F,B,0,56303,173743,14,03-04-2015,14:27:38
12064,16,D,D,1,28828,116908,14,03-04-2015,14:27:38
12064,17,E,E,1,56731,87551,14,03-04-2015,14:27:38
12065,1,E,E,1,23396,600000,7,03-04-2015,14:34:06
12065,2,G,G,1,10830,575991,7,03-04-2015,14:34:06
12065,3,C,C,1,21025,564628,7,03-04-2015,14:34:06
12065,4,F,B,0,10800,543067,7,03-04-2015,14:34:06
12065,5,H,A,0,5854,531738,7,03-04-2015,14:34:06
12065,6,E,E,1,14999,525357,7,03-04-2015,14:34:06
12065,7,B,A,0,14054,509828,7,03-04-2015,14:34:06
12065,8,B,B,1,21986,495248,7,03-04-2015,14:34:06
12065,9,F,F,1,9355,472740,7,03-04-2015,14:34:06
12065,10,C,E,0,7538,462859,7,03-04-2015,14:34:06
12065,11,H,D,0,33040,454795,7,03-04-2015,14:34:06
12065,12,F,E,0,25441,421223,7,03-04-2015,14:34:06
12065,13,G,H,0,45990,395247,7,03-04-2015,14:34:06
12065,14,G,D,0,23462,348729,7,03-04-2015,14:34:06
12065,15,F,C,0,45794,324736,7,03-04-2015,14:34:06
12065,16,D,E,0,65078,278416,7,03-04-2015,14:34:06
12065,17,E,C,0,47030,212804,7,03-04-2015,14:34:06
12065,18,C,C,1,48578,165253,7,03-04-2015,14:34:06
12068,1,E,E,1,36614,600000,5,03-06-2015,15:18:31
12068,2,G,G,1,37345,562762,5,03-06-2015,15:18:31
12068,3,C,C,1,21496,524890,5,03-06-2015,15:18:31
12068,4,F,B,0,153860,502862,5,03-06-2015,15:18:31
12068,5,H,C,0,131016,348476,5,03-06-2015,15:18:31
12068,6,E,E,1,103617,216933,5,03-06-2015,15:18:31
12068,7,B,E,0,53534,112781,5,03-06-2015,15:18:31
12069,1,E,E,1,11707,600000,12,03-04-2015,15:07:18
12069,2,G,G,1,13988,587687,12,03-04-2015,15:07:18
12069,3,C,C,1,21362,573175,12,03-04-2015,15:07:18
12069,4,F,F,1,14396,551281,12,03-04-2015,15:07:18
12069,5,H,H,1,5403,536352,12,03-04-2015,15:07:18
12069,6,E,E,1,12046,530421,12,03-04-2015,15:07:18
12069,7,B,E,0,13010,517841,12,03-04-2015,15:07:18
12069,8,B,F,0,25014,504296,12,03-04-2015,15:07:18
12069,9,F,F,1,6584,478753,12,03-04-2015,15:07:18
12069,10,C,C,1,9284,471639,12,03-04-2015,15:07:18
12069,11,H,D,0,22918,461825,12,03-04-2015,15:07:18
12069,12,F,C,0,14610,438381,12,03-04-2015,15:07:18
12069,13,G,G,1,39286,423253,12,03-04-2015,15:07:18
12069,14,G,G,1,24711,383433,12,03-04-2015,15:07:18
12069,15,F,G,0,45034,358190,12,03-04-2015,15:07:18
12069,16,D,D,1,107233,312620,12,03-04-2015,15:07:18
12069,17,E,E,1,61766,204854,12,03-04-2015,15:07:18
12069,18,C,F,0,31226,142556,12,03-04-2015,15:07:18
12070,1,E,B,0,10502,600000,3,03-04-2015,15:16:45
12070,2,G,A,0,26534,588887,3,03-04-2015,15:16:45
12070,3,C,H,0,9627,561828,3,03-04-2015,15:16:45
12070,4,F,D,0,55213,551680,3,03-04-2015,15:16:45
12070,5,H,C,0,7983,495948,3,03-04-2015,15:16:45
12070,6,E,F,0,23516,487434,3,03-04-2015,15:16:45
12070,7,B,C,0,22703,463391,3,03-04-2015,15:16:45
12070,8,B,B,1,25474,440165,3,03-04-2015,15:16:45
12070,9,F,C,0,13321,414156,3,03-04-2015,15:16:45
12070,10,C,C,1,31033,400310,3,03-04-2015,15:16:45
12070,11,H,E,0,13067,368753,3,03-04-2015,15:16:45
12070,12,F,E,0,24062,355157,3,03-04-2015,15:16:45
12070,13,G,A,0,49138,330565,3,03-04-2015,15:16:45
12070,14,G,F,0,15661,280896,3,03-04-2015,15:16:45
12070,15,F,C,0,19104,264701,3,03-04-2015,15:16:45
12070,16,D,C,0,81303,245074,3,03-04-2015,15:16:45
12070,17,E,E,1,12869,163249,3,03-04-2015,15:16:45
12070,18,C,B,0,54294,149853,3,03-04-2015,15:16:45
12071,1,E,E,1,8406,600000,11,03-04-2015,16:25:53
12071,2,G,G,1,11371,590986,11,03-04-2015,16:25:53
12071,3,C,C,1,7914,579090,11,03-04-2015,16:25:53
12071,4,F,F,1,17657,570641,11,03-04-2015,16:25:53
12071,5,H,H,1,12678,552464,11,03-04-2015,16:25:53
12071,6,E,E,1,26017,539251,11,03-04-2015,16:25:53
12071,7,B,H,0,16481,512709,11,03-04-2015,16:25:53
12071,8,B,B,1,15292,495696,11,03-04-2015,16:25:53
12071,9,F,D,0,46598,479868,11,03-04-2015,16:25:53
12071,10,C,C,1,27348,432748,11,03-04-2015,16:25:53
12071,11,H,A,0,37527,404873,11,03-04-2015,16:25:53
12071,12,F,B,0,86715,366816,11,03-04-2015,16:25:53
12071,13,G,B,0,36255,279576,11,03-04-2015,16:25:53
12071,14,G,G,1,49656,242787,11,03-04-2015,16:25:53
12071,15,F,B,0,55659,192601,11,03-04-2015,16:25:53
12071,16,D,D,1,62417,136416,11,03-04-2015,16:25:53
12072,1,E,A,0,8812,600000,11,03-05-2015,09:35:18
12072,2,G,G,1,57308,590570,11,03-05-2015,09:35:18
12072,3,C,C,1,19091,532738,11,03-05-2015,09:35:18
12072,4,F,F,1,21719,513126,11,03-05-2015,09:35:18
12072,5,H,H,1,21523,490884,11,03-05-2015,09:35:18
12072,6,E,E,1,37077,468841,11,03-05-2015,09:35:18
12072,7,B,B,1,36109,431236,11,03-05-2015,09:35:18
12072,8,B,H,0,22412,394598,11,03-05-2015,09:35:18
12072,9,F,F,1,34042,371655,11,03-05-2015,09:35:18
12072,10,C,C,1,19140,337049,11,03-05-2015,09:35:18
12072,11,H,H,1,41603,317388,11,03-05-2015,09:35:18
12072,12,F,H,0,55759,275235,11,03-05-2015,09:35:18
12072,13,G,G,1,23514,218952,11,03-05-2015,09:35:18
12072,14,G,C,0,69554,194910,11,03-05-2015,09:35:18
12072,15,F,G,0,41105,124815,11,03-05-2015,09:35:18
12072,16,D,H,0,68494,83178,11,03-05-2015,09:35:18
12076,1,E,E,1,46416,600000,17,03-05-2015,12:20:09
12076,2,G,G,1,15782,552963,17,03-05-2015,12:20:09
12076,3,C,C,1,10886,536651,17,03-05-2015,12:20:09
12076,4,F,F,1,16744,525237,17,03-05-2015,12:20:09
12076,5,H,H,1,5929,507960,17,03-05-2015,12:20:09
12076,6,E,E,1,9680,501511,17,03-05-2015,12:20:09
12076,7,B,B,1,47392,491298,17,03-05-2015,12:20:09
12076,8,B,B,1,18231,443377,17,03-05-2015,12:20:09
12076,9,F,F,1,25077,424600,17,03-05-2015,12:20:09
12076,10,C,C,1,26241,398991,17,03-05-2015,12:20:09
12076,11,H,H,1,23657,372216,17,03-05-2015,12:20:09
12076,12,F,F,1,24559,348023,17,03-05-2015,12:20:09
12076,13,G,G,1,42911,322930,17,03-05-2015,12:20:09
12076,14,G,G,1,44408,279492,17,03-05-2015,12:20:09
12076,15,F,F,1,52508,234555,17,03-05-2015,12:20:09
12076,16,D,D,1,105652,181520,17,03-05-2015,12:20:09
12078,1,E,E,1,50400,600000,10,03-05-2015,12:27:02
12078,2,G,G,1,14969,548983,10,03-05-2015,12:27:02
12078,3,C,C,1,13760,533488,10,03-05-2015,12:27:02
12078,4,F,B,0,16256,519174,10,03-05-2015,12:27:02
12078,5,H,E,0,41083,502397,10,03-05-2015,12:27:02
12078,6,E,E,1,32531,460794,10,03-05-2015,12:27:02
12078,7,B,E,0,20426,427704,10,03-05-2015,12:27:02
12078,8,B,B,1,40333,406744,10,03-05-2015,12:27:02
12078,9,F,F,1,21437,365840,10,03-05-2015,12:27:02
12078,10,C,C,1,14444,343880,10,03-05-2015,12:27:02
12078,11,H,D,0,17175,328902,10,03-05-2015,12:27:02
12078,12,F,F,1,44389,311190,10,03-05-2015,12:27:02
12078,13,G,G,1,4709,266271,10,03-05-2015,12:27:02
12078,14,G,G,1,5349,261039,10,03-05-2015,12:27:02
12078,15,F,C,0,73414,255158,10,03-05-2015,12:27:02
12078,16,D,E,0,26924,181214,10,03-05-2015,12:27:02
12078,17,E,C,0,36894,153723,10,03-05-2015,12:27:02
12078,18,C,A,0,37820,116285,10,03-05-2015,12:27:02
12080,1,E,E,1,13032,600000,17,03-05-2015,12:20:53
12080,2,G,G,1,10621,586354,17,03-05-2015,12:20:53
12080,3,C,C,1,8402,575207,17,03-05-2015,12:20:53
12080,4,F,F,1,12590,566276,17,03-05-2015,12:20:53
12080,5,H,H,1,6469,553164,17,03-05-2015,12:20:53
12080,6,E,E,1,13550,546166,17,03-05-2015,12:20:53
12080,7,B,B,1,13535,532087,17,03-05-2015,12:20:53
12080,8,B,B,1,29158,518024,17,03-05-2015,12:20:53
12080,9,F,F,1,18034,488332,17,03-05-2015,12:20:53
12080,10,C,C,1,10153,469771,17,03-05-2015,12:20:53
12080,11,H,H,1,36014,459091,17,03-05-2015,12:20:53
12080,12,F,F,1,22634,422551,17,03-05-2015,12:20:53
12080,13,G,G,1,54855,399391,17,03-05-2015,12:20:53
12080,14,G,G,1,66675,344007,17,03-05-2015,12:20:53
12080,15,F,F,1,67195,276810,17,03-05-2015,12:20:53
12080,16,D,H,0,85675,209080,17,03-05-2015,12:20:53
12080,17,E,E,1,29762,122871,17,03-05-2015,12:20:53
12080,18,C,C,1,11637,92580,17,03-05-2015,12:20:53
12081,1,E,E,1,59249,600000,12,03-05-2015,13:23:16
12081,2,G,G,1,16171,540135,12,03-05-2015,13:23:16
12081,3,C,C,1,9059,523440,12,03-05-2015,13:23:16
12081,4,F,F,1,15157,513859,12,03-05-2015,13:23:16
12081,5,H,H,1,13350,498181,12,03-05-2015,13:23:16
12081,6,E,E,1,16150,484302,12,03-05-2015,13:23:16
12081,7,B,B,1,49500,467624,12,03-05-2015,13:23:16
12081,8,B,B,1,38527,417588,12,03-05-2015,13:23:16
12081,9,F,C,0,53780,378534,12,03-05-2015,13:23:16
12081,10,C,C,1,62564,324234,12,03-05-2015,13:23:16
12081,11,H,H,1,45208,261137,12,03-05-2015,13:23:16
12081,12,F,H,0,42085,215400,12,03-05-2015,13:23:16
12081,13,G,G,1,43126,172797,12,03-05-2015,13:23:16
12083,1,E,E,1,14133,600000,9,03-05-2015,13:23:23
12083,2,G,G,1,21621,585238,9,03-05-2015,13:23:23
12083,3,C,C,1,22956,563095,9,03-05-2015,13:23:23
12083,4,F,B,0,26181,539601,9,03-05-2015,13:23:23
12083,5,H,H,1,22071,512893,9,03-05-2015,13:23:23
12083,6,E,E,1,44964,490300,9,03-05-2015,13:23:23
12083,7,B,B,1,57129,444814,9,03-05-2015,13:23:23
12083,8,B,G,0,35444,387148,9,03-05-2015,13:23:23
12083,9,F,C,0,56381,351176,9,03-05-2015,13:23:23
12083,10,C,C,1,27663,294259,9,03-05-2015,13:23:23
12083,11,H,H,1,25349,266068,9,03-05-2015,13:23:23
12083,12,F,H,0,50159,240192,9,03-05-2015,13:23:23
12083,13,G,G,1,26120,189508,9,03-05-2015,13:23:23
12083,14,G,F,0,59210,162849,9,03-05-2015,13:23:23
12083,15,F,G,0,13830,103117,9,03-05-2015,13:23:23
12083,16,D,G,0,35872,88755,9,03-05-2015,13:23:23
12083,17,E,A,0,44192,52349,9,03-05-2015,13:23:23
12084,1,E,E,1,14407,600000,10,03-05-2015,14:17:40
12084,2,G,G,1,20814,584988,10,03-05-2015,14:17:40
12084,3,C,C,1,34140,563645,10,03-05-2015,14:17:40
12084,4,F,F,1,28280,528971,10,03-05-2015,14:17:40
12084,5,H,C,0,35198,500164,10,03-05-2015,14:17:40
12084,6,E,E,1,24026,464442,10,03-05-2015,14:17:40
12084,7,B,B,1,36121,439882,10,03-05-2015,14:17:40
12084,8,B,B,1,37414,403226,10,03-05-2015,14:17:40
12084,9,F,C,0,14203,365289,10,03-05-2015,14:17:40
12084,10,C,C,1,43439,350560,10,03-05-2015,14:17:40
12084,11,H,A,0,48090,306590,10,03-05-2015,14:17:40
12084,12,F,F,1,52164,257970,10,03-05-2015,14:17:40
12084,13,G,D,0,31302,205287,10,03-05-2015,14:17:40
12084,14,G,G,1,39379,173464,10,03-05-2015,14:17:40
12084,15,F,C,0,102125,133559,10,03-05-2015,14:17:40
12087,1,E,E,1,20071,600000,14,03-05-2015,16:15:53
12087,2,G,G,1,21204,579323,14,03-05-2015,16:15:53
12087,3,C,C,1,13724,557596,14,03-05-2015,16:15:53
12087,4,F,F,1,45092,543349,14,03-05-2015,16:15:53
12087,5,H,H,1,7272,497730,14,03-05-2015,16:15:53
12087,6,E,E,1,15753,489933,14,03-05-2015,16:15:53
12087,7,B,B,1,34376,473654,14,03-05-2015,16:15:53
12087,8,B,B,1,33380,438747,14,03-05-2015,16:15:53
12087,9,F,F,1,18952,404841,14,03-05-2015,16:15:53
12087,10,C,C,1,30609,385363,14,03-05-2015,16:15:53
12087,11,H,H,1,52881,354223,14,03-05-2015,16:15:53
12087,12,F,F,1,48541,300805,14,03-05-2015,16:15:53
12087,13,G,D,0,45918,251736,14,03-05-2015,16:15:53
12087,14,G,D,0,77660,205283,14,03-05-2015,16:15:53
12087,15,F,F,1,98988,127090,14,03-05-2015,16:15:53
12089,1,E,E,1,18872,600000,13,03-06-2015,09:27:01
12089,2,G,G,1,12205,580522,13,03-06-2015,09:27:01
12089,3,C,C,1,14114,567793,13,03-06-2015,09:27:01
12089,4,F,B,0,34395,553146,13,03-06-2015,09:27:01
12089,5,H,H,1,7536,518224,13,03-06-2015,09:27:01
12089,6,E,E,1,20174,510160,13,03-06-2015,09:27:01
12089,7,B,B,1,53693,489466,13,03-06-2015,09:27:01
12089,8,B,B,1,15283,435248,13,03-06-2015,09:27:01
12089,9,F,F,1,9894,419437,13,03-06-2015,09:27:01
12089,10,C,E,0,18304,409023,13,03-06-2015,09:27:01
12089,11,H,D,0,35722,390195,13,03-06-2015,09:27:01
12089,12,F,F,1,45319,353939,13,03-06-2015,09:27:01
12089,13,G,B,0,54047,308086,13,03-06-2015,09:27:01
12089,14,G,G,1,23039,253519,13,03-06-2015,09:27:01
12089,15,F,F,1,37988,229959,13,03-06-2015,09:27:01
12089,16,D,D,1,186184,191436,13,03-06-2015,09:27:01
12092,1,E,E,1,32581,600000,14,03-06-2015,11:24:20
12092,2,G,G,1,30488,566810,14,03-06-2015,11:24:20
12092,3,C,C,1,14879,535770,14,03-06-2015,11:24:20
12092,4,F,F,1,28641,520357,14,03-06-2015,11:24:20
12092,5,H,H,1,20722,491183,14,03-06-2015,11:24:20
12092,6,E,E,1,16925,469940,14,03-06-2015,11:24:20
12092,7,B,B,1,26238,452478,14,03-06-2015,11:24:20
12092,8,B,B,1,42819,425702,14,03-06-2015,11:24:20
12092,9,F,F,1,13737,382333,14,03-06-2015,11:24:20
12092,10,C,C,1,20168,368071,14,03-06-2015,11:24:20
12092,11,H,H,1,24969,347361,14,03-06-2015,11:24:20
12092,12,F,F,1,63023,321852,14,03-06-2015,11:24:20
12092,13,G,B,0,24690,258305,14,03-06-2015,11:24:20
12092,14,G,D,0,68212,233078,14,03-06-2015,11:24:20
12092,15,F,G,0,55295,164333,14,03-06-2015,11:24:20
12092,16,D,D,1,50979,108499,14,03-06-2015,11:24:20
12094,1,E,E,1,10217,600000,7,03-06-2015,11:25:38
12094,2,G,G,1,7222,589170,7,03-06-2015,11:25:38
12094,3,C,C,1,9954,581422,7,03-06-2015,11:25:38
12094,4,F,F,1,23576,570941,7,03-06-2015,11:25:38
12094,5,H,C,0,40807,546833,7,03-06-2015,11:25:38
12094,6,E,E,1,11318,505495,7,03-06-2015,11:25:38
12094,7,B,E,0,12911,493648,7,03-06-2015,11:25:38
12094,8,B,B,1,16048,480202,7,03-06-2015,11:25:38
12094,9,F,C,0,16307,463625,7,03-06-2015,11:25:38
12094,10,C,C,1,8071,446796,7,03-06-2015,11:25:38
12094,11,H,B,0,45263,438199,7,03-06-2015,11:25:38
12094,12,F,H,0,38178,392412,7,03-06-2015,11:25:38
12094,13,G,H,0,20840,353708,7,03-06-2015,11:25:38
12094,14,G,C,0,23950,332347,7,03-06-2015,11:25:38
12094,15,F,G,0,33128,307872,7,03-06-2015,11:25:38
12094,16,D,B,0,64659,274215,7,03-06-2015,11:25:38
12094,17,E,B,0,64106,209019,7,03-06-2015,11:25:38
12094,18,C,A,0,27354,144389,7,03-06-2015,11:25:38
12095,1,E,E,1,11259,600000,14,03-06-2015,13:16:29
12095,2,G,G,1,6694,588120,14,03-06-2015,13:16:29
12095,3,C,C,1,26069,580872,14,03-06-2015,13:16:29
12095,4,F,F,1,16620,554280,14,03-06-2015,13:16:29
12095,5,H,H,1,4714,537136,14,03-06-2015,13:16:29
12095,6,E,E,1,7249,531871,14,03-06-2015,13:16:29
12095,7,B,B,1,17394,524090,14,03-06-2015,13:16:29
12095,8,B,B,1,23904,506161,14,03-06-2015,13:16:29
12095,9,F,F,1,19853,481720,14,03-06-2015,13:16:29
12095,10,C,H,0,41033,461343,14,03-06-2015,13:16:29
12095,11,H,H,1,26701,419773,14,03-06-2015,13:16:29
12095,12,F,F,1,63111,392547,14,03-06-2015,13:16:29
12095,13,G,B,0,11912,328901,14,03-06-2015,13:16:29
12095,14,G,G,1,23031,316455,14,03-06-2015,13:16:29
12095,15,F,G,0,66947,292896,14,03-06-2015,13:16:29
12095,16,D,D,1,75942,225416,14,03-06-2015,13:16:29
12095,17,E,E,1,92659,148941,14,03-06-2015,13:16:29
12096,1,E,E,1,41855,600000,4,03-06-2015,13:20:56
12096,2,G,A,0,35664,557529,4,03-06-2015,13:20:56
12096,3,C,C,1,20114,521339,4,03-06-2015,13:20:56
12096,4,F,B,0,43228,500695,4,03-06-2015,13:20:56
12096,5,H,H,1,30160,456942,4,03-06-2015,13:20:56
12096,6,E,F,0,30859,426251,4,03-06-2015,13:20:56
12096,7,B,E,0,31539,394860,4,03-06-2015,13:20:56
12096,8,B,H,0,36487,362785,4,03-06-2015,13:20:56
12096,9,F,C,0,22479,325764,4,03-06-2015,13:20:56
12096,10,C,C,1,36164,302754,4,03-06-2015,13:20:56
12096,11,H,D,0,33480,266065,4,03-06-2015,13:20:56
12096,12,F,E,0,17321,232058,4,03-06-2015,13:20:56
12096,13,G,B,0,16723,214214,4,03-06-2015,13:20:56
12096,14,G,D,0,31324,196969,4,03-06-2015,13:20:56
12096,15,F,C,0,30617,165111,4,03-06-2015,13:20:56
12096,16,D,H,0,60801,133971,4,03-06-2015,13:20:56
12096,17,E,D,0,31715,72639,4,03-06-2015,13:20:56
12096,18,C,A,0,13866,40398,4,03-06-2015,13:20:56
12097,1,E,E,1,10949,600000,16,03-06-2015,12:21:07
12097,2,G,G,1,12325,588437,16,03-06-2015,12:21:07
12097,3,C,C,1,8918,575591,16,03-06-2015,12:21:07
12097,4,F,F,1,15270,566142,16,03-06-2015,12:21:07
12097,5,H,H,1,28353,550348,16,03-06-2015,12:21:07
12097,6,E,E,1,12669,521473,16,03-06-2015,12:21:07
12097,7,B,B,1,15368,508277,16,03-06-2015,12:21:07
12097,8,B,B,1,21152,492381,16,03-06-2015,12:21:07
12097,9,F,F,1,15147,470704,16,03-06-2015,12:21:07
12097,10,C,C,1,26962,455025,16,03-06-2015,12:21:07
12097,11,H,H,1,47684,427533,16,03-06-2015,12:21:07
12097,12,F,F,1,38870,379314,16,03-06-2015,12:21:07
12097,13,G,G,1,27919,339909,16,03-06-2015,12:21:07
12097,14,G,G,1,53922,311467,16,03-06-2015,12:21:07
12097,15,F,H,0,57909,257016,16,03-06-2015,12:21:07
12097,16,D,D,1,67160,198583,16,03-06-2015,12:21:07
12097,17,E,E,1,73916,130902,16,03-06-2015,12:21:07
12097,18,C,D,0,54485,56457,16,03-06-2015,12:21:07
12098,1,E,E,1,17771,600000,11,03-06-2015,14:20:01
12098,2,G,G,1,8411,581621,11,03-06-2015,14:20:01
12098,3,C,C,1,12375,572690,11,03-06-2015,14:20:01
12098,4,F,F,1,15999,559793,11,03-06-2015,14:20:01
12098,5,H,H,1,9445,543266,11,03-06-2015,14:20:01
12098,6,E,E,1,15040,533285,11,03-06-2015,14:20:01
12098,7,B,B,1,18221,517723,11,03-06-2015,14:20:01
12098,8,B,B,1,19571,498979,11,03-06-2015,14:20:01
12098,9,F,F,1,14565,478884,11,03-06-2015,14:20:01
12098,10,C,G,0,15380,463789,11,03-06-2015,14:20:01
12098,11,H,C,0,34946,447877,11,03-06-2015,14:20:01
12098,12,F,C,0,29407,412404,11,03-06-2015,14:20:01
12098,13,G,B,0,21697,382462,11,03-06-2015,14:20:01
12098,14,G,D,0,21045,360235,11,03-06-2015,14:20:01
12098,15,F,C,0,25283,338658,11,03-06-2015,14:20:01
12098,16,D,D,1,50142,312849,11,03-06-2015,14:20:01
12098,17,E,F,0,32089,262180,11,03-06-2015,14:20:01
12098,18,C,C,1,33399,229556,11,03-06-2015,14:20:01
12101,1,E,E,1,20688,600000,9,03-09-2015,09:39:37
12101,2,G,G,1,17029,578706,9,03-09-2015,09:39:37
12101,3,C,B,0,17409,561144,9,03-09-2015,09:39:37
12101,4,F,F,1,32159,543165,9,03-09-2015,09:39:37
12101,5,H,H,1,11483,510476,9,03-09-2015,09:39:37
12101,6,E,E,1,14421,498463,9,03-09-2015,09:39:37
12101,7,B,F,0,28858,483517,9,03-09-2015,09:39:37
12101,8,B,B,1,33129,454124,9,03-09-2015,09:39:37
12101,9,F,F,1,13189,420468,9,03-09-2015,09:39:37
12101,10,C,C,1,42027,406722,9,03-09-2015,09:39:37
12101,11,H,D,0,16799,364168,9,03-09-2015,09:39:37
12101,12,F,A,0,30382,346840,9,03-09-2015,09:39:37
12101,13,G,D,0,34144,315932,9,03-09-2015,09:39:37
12101,14,G,G,1,48588,281258,9,03-09-2015,09:39:37
12101,15,F,G,0,56818,232139,9,03-09-2015,09:39:37
12101,16,D,C,0,51673,174772,9,03-09-2015,09:39:37
12102,1,E,E,1,12998,600000,10,03-09-2015,09:27:11
12102,2,G,D,0,20770,586387,10,03-09-2015,09:27:11
12102,3,C,C,1,10069,565093,10,03-09-2015,09:27:11
12102,4,F,F,1,23246,554496,10,03-09-2015,09:27:11
12102,5,H,A,0,19116,530720,10,03-09-2015,09:27:11
12102,6,E,E,1,25663,511076,10,03-09-2015,09:27:11
12102,7,B,B,1,79322,484884,10,03-09-2015,09:27:11
12102,8,B,F,0,34460,405023,10,03-09-2015,09:27:11
12102,9,F,F,1,32757,370034,10,03-09-2015,09:27:11
12102,10,C,C,1,16377,336744,10,03-09-2015,09:27:11
12102,11,H,D,0,41384,319832,10,03-09-2015,09:27:11
12102,12,F,F,1,86715,277928,10,03-09-2015,09:27:11
12102,13,G,G,1,18209,190687,10,03-09-2015,09:27:11
12102,14,G,C,0,64325,171959,10,03-09-2015,09:27:11
12102,15,F,F,1,88232,107112,10,03-09-2015,09:27:11
12103,1,E,E,1,41629,600000,8,03-09-2015,10:08:55
12103,2,G,G,1,52359,557763,8,03-09-2015,10:08:55
12103,3,C,C,1,60647,504862,8,03-09-2015,10:08:55
12103,4,F,F,1,129464,443680,8,03-09-2015,10:08:55
12103,5,H,H,1,69394,313687,8,03-09-2015,10:08:55
12103,6,E,E,1,56525,243759,8,03-09-2015,10:08:55
12103,7,B,F,0,39738,186710,8,03-09-2015,10:08:55
12103,8,B,B,1,78613,146438,8,03-09-2015,10:08:55
12103,9,F,C,0,22382,67296,8,03-09-2015,10:08:55
12104,1,E,E,1,24708,600000,13,03-09-2015,09:25:36
12104,2,G,G,1,9681,574674,13,03-09-2015,09:25:36
12104,3,C,C,1,27538,564460,13,03-09-2015,09:25:36
12104,4,F,B,0,10735,536401,13,03-09-2015,09:25:36
12104,5,H,H,1,22350,525139,13,03-09-2015,09:25:36
12104,6,E,E,1,17264,502262,13,03-09-2015,09:25:36
12104,7,B,B,1,37523,484468,13,03-09-2015,09:25:36
12104,8,B,B,1,28210,446412,13,03-09-2015,09:25:36
12104,9,F,F,1,25115,417671,13,03-09-2015,09:25:36
12104,10,C,C,1,63213,392029,13,03-09-2015,09:25:36
12104,11,H,H,1,43455,328282,13,03-09-2015,09:25:36
12104,12,F,F,1,54776,284295,13,03-09-2015,09:25:36
12104,13,G,G,1,41977,228995,13,03-09-2015,09:25:36
12104,14,G,F,0,157632,186491,13,03-09-2015,09:25:36
12105,1,E,E,1,49714,600000,10,03-09-2015,10:21:22
12105,2,G,G,1,12998,549664,10,03-09-2015,10:21:22
12105,3,C,C,1,14523,536135,10,03-09-2015,10:21:22
12105,4,F,F,1,30468,521088,10,03-09-2015,10:21:22
12105,5,H,H,1,27828,490098,10,03-09-2015,10:21:22
12105,6,E,E,1,26843,461740,10,03-09-2015,10:21:22
12105,7,B,E,0,32587,434364,10,03-09-2015,10:21:22
12105,8,B,B,1,19182,401239,10,03-09-2015,10:21:22
12105,9,F,D,0,69883,381529,10,03-09-2015,10:21:22
12105,10,C,C,1,18669,311116,10,03-09-2015,10:21:22
12105,11,H,H,1,68743,291922,10,03-09-2015,10:21:22
12105,12,F,C,0,64252,222659,10,03-09-2015,10:21:22
12105,13,G,A,0,84619,157877,10,03-09-2015,10:21:22
12107,1,E,E,1,30871,600000,9,03-09-2015,12:22:41
12107,2,G,G,1,18638,568509,9,03-09-2015,12:22:41
12107,3,C,C,1,9357,549348,9,03-09-2015,12:22:41
12107,4,F,F,1,30859,539467,9,03-09-2015,12:22:41
12107,5,H,A,0,27690,508077,9,03-09-2015,12:22:41
12107,6,E,E,1,31959,479852,9,03-09-2015,12:22:41
12107,7,B,E,0,21252,447361,9,03-09-2015,12:22:41
12107,8,B,B,1,16010,425584,9,03-09-2015,12:22:41
12107,9,F,F,1,20872,409039,9,03-09-2015,12:22:41
12107,10,C,E,0,20941,387646,9,03-09-2015,12:22:41
12107,11,H,H,1,37943,366185,9,03-09-2015,12:22:41
12107,12,F,H,0,26765,327713,9,03-09-2015,12:22:41
12107,13,G,G,1,43526,300421,9,03-09-2015,12:22:41
12107,14,G,D,0,33526,256368,9,03-09-2015,12:22:41
12107,15,F,G,0,49148,222311,9,03-09-2015,12:22:41
12107,16,D,H,0,86626,172641,9,03-09-2015,12:22:41
12107,17,E,A,0,70079,85485,9,03-09-2015,12:22:41
12109,1,E,E,1,32573,600000,6,03-09-2015,12:14:37
12109,2,G,H,0,12193,566810,6,03-09-2015,12:14:37
12109,3,C,C,1,10071,554096,6,03-09-2015,12:14:37
12109,4,F,B,0,24801,543499,6,03-09-2015,12:14:37
12109,5,H,D,0,37665,518174,6,03-09-2015,12:14:37
12109,6,E,E,1,36978,479986,6,03-09-2015,12:14:37
12109,7,B,B,1,40262,442481,6,03-09-2015,12:14:37
12109,8,B,B,1,42487,401693,6,03-09-2015,12:14:37
12109,9,F,C,0,11602,358673,6,03-09-2015,12:14:37
12109,10,C,F,0,25687,346543,6,03-09-2015,12:14:37
12109,11,H,G,0,18533,320334,6,03-09-2015,12:14:37
12109,12,F,A,0,10536,301273,6,03-09-2015,12:14:37
12109,13,G,H,0,7583,290210,6,03-09-2015,12:14:37
12109,14,G,E,0,11588,282096,6,03-09-2015,12:14:37
12109,15,F,H,0,34489,269983,6,03-09-2015,12:14:37
12109,16,D,D,1,33192,234960,6,03-09-2015,12:14:37
12109,17,E,B,0,24315,201237,6,03-09-2015,12:14:37
12109,18,C,A,0,15960,176394,6,03-09-2015,12:14:37
12110,1,E,E,1,10534,600000,5,03-09-2015,13:24:36
12110,2,G,G,1,18325,588854,5,03-09-2015,13:24:36
12110,3,C,C,1,17255,569993,5,03-09-2015,13:24:36
12110,4,F,G,0,13548,552214,5,03-09-2015,13:24:36
12110,5,H,C,0,11596,538136,5,03-09-2015,13:24:36
12110,6,E,G,0,16282,526006,5,03-09-2015,13:24:36
12110,7,B,B,1,11805,509195,5,03-09-2015,13:24:36
12110,8,B,F,0,11060,496864,5,03-09-2015,13:24:36
12110,9,F,F,1,10087,485285,5,03-09-2015,13:24:36
12110,10,C,B,0,16544,474672,5,03-09-2015,13:24:36
12110,11,H,C,0,9377,457594,5,03-09-2015,13:24:36
12110,12,F,E,0,10383,447697,5,03-09-2015,13:24:36
12110,13,G,H,0,10326,436783,5,03-09-2015,13:24:36
12110,14,G,A,0,6534,425937,5,03-09-2015,13:24:36
12110,15,F,E,0,8886,418872,5,03-09-2015,13:24:36
12110,16,D,A,0,13166,409457,5,03-09-2015,13:24:36
12110,17,E,B,0,16709,395763,5,03-09-2015,13:24:36
12110,18,C,A,0,17663,378518,5,03-09-2015,13:24:36
12112,1,E,E,1,16316,600000,13,03-09-2015,14:22:07
12112,2,G,G,1,17175,583072,13,03-09-2015,14:22:07
12112,3,C,C,1,12191,565360,13,03-09-2015,14:22:07
12112,4,F,F,1,16596,552646,13,03-09-2015,14:22:07
12112,5,H,H,1,23291,535519,13,03-09-2015,14:22:07
12112,6,E,E,1,12216,511693,13,03-09-2015,14:22:07
12112,7,B,B,1,71593,498947,13,03-09-2015,14:22:07
12112,8,B,B,1,64716,426819,13,03-09-2015,14:22:07
12112,9,F,F,1,26524,361573,13,03-09-2015,14:22:07
12112,10,C,C,1,55526,334514,13,03-09-2015,14:22:07
12112,11,H,A,0,35961,278464,13,03-09-2015,14:22:07
12112,12,F,F,1,89226,241975,13,03-09-2015,14:22:07
12112,13,G,G,1,69489,152220,13,03-09-2015,14:22:07
12112,14,G,G,1,43074,82208,13,03-09-2015,14:22:07
12113,1,E,E,1,20816,600000,9,03-09-2015,15:21:53
12113,2,G,H,0,11320,578574,9,03-09-2015,15:21:53
12113,3,C,C,1,15521,566727,9,03-09-2015,15:21:53
12113,4,F,B,0,43105,550681,9,03-09-2015,15:21:53
12113,5,H,H,1,32658,507046,9,03-09-2015,15:21:53
12113,6,E,E,1,16395,473856,9,03-09-2015,15:21:53
12113,7,B,B,1,17090,456928,9,03-09-2015,15:21:53
12113,8,B,B,1,18772,439317,9,03-09-2015,15:21:53
12113,9,F,F,1,19389,420006,9,03-09-2015,15:21:53
12113,10,C,C,1,2110,400079,9,03-09-2015,15:21:53
12113,11,H,C,0,1204,397447,9,03-09-2015,15:21:53
12113,12,F,B,0,1254,395681,9,03-09-2015,15:21:53
12113,13,G,B,0,13141,393881,9,03-09-2015,15:21:53
12113,14,G,F,0,10007,380202,9,03-09-2015,15:21:53
12113,15,F,F,1,13660,369672,9,03-09-2015,15:21:53
12113,16,D,C,0,2584,355493,9,03-09-2015,15:21:53
12113,17,E,B,0,15507,352378,9,03-09-2015,15:21:53
12113,18,C,A,0,21612,336349,9,03-09-2015,15:21:53
12115,1,E,E,1,11336,600000,6,03-10-2015,09:45:55
12115,2,G,A,0,35423,588053,6,03-10-2015,09:45:55
12115,3,C,A,0,13122,552098,6,03-10-2015,09:45:55
12115,4,F,F,1,23274,538451,6,03-10-2015,09:45:55
12115,5,H,H,1,27526,514626,6,03-10-2015,09:45:55
12115,6,E,E,1,22970,486568,6,03-10-2015,09:45:55
12115,7,B,E,0,25812,463076,6,03-10-2015,09:45:55
12115,8,B,B,1,14949,436734,6,03-10-2015,09:45:55
12115,9,F,H,0,33955,421239,6,03-10-2015,09:45:55
12115,10,C,E,0,25264,386750,6,03-10-2015,09:45:55
12115,11,H,G,0,24813,360958,6,03-10-2015,09:45:55
12115,12,F,C,0,23582,335599,6,03-10-2015,09:45:55
12115,13,G,H,0,22887,311490,6,03-10-2015,09:45:55
12115,14,G,G,1,25363,288064,6,03-10-2015,09:45:55
12115,15,F,A,0,27373,262172,6,03-10-2015,09:45:55
12115,16,D,F,0,15983,234264,6,03-10-2015,09:45:55
12115,17,E,D,0,38622,217752,6,03-10-2015,09:45:55
12115,18,C,G,0,39024,178598,6,03-10-2015,09:45:55
12116,1,E,E,1,19887,600000,12,03-10-2015,12:30:21
12116,2,G,G,1,12636,579507,12,03-10-2015,12:30:21
12116,3,C,C,1,12049,566343,12,03-10-2015,12:30:21
12116,4,F,F,1,16108,553764,12,03-10-2015,12:30:21
12116,5,H,H,1,6671,537137,12,03-10-2015,12:30:21
12116,6,E,E,1,15144,529939,12,03-10-2015,12:30:21
12116,7,B,B,1,31912,514260,12,03-10-2015,12:30:21
12116,8,B,B,1,21110,481820,12,03-10-2015,12:30:21
12116,9,F,C,0,39504,460177,12,03-10-2015,12:30:21
12116,10,C,C,1,32688,420140,12,03-10-2015,12:30:21
12116,11,H,H,1,79722,386917,12,03-10-2015,12:30:21
12116,12,F,C,0,143910,306659,12,03-10-2015,12:30:21
12116,13,G,G,1,49180,162221,12,03-10-2015,12:30:21
12117,1,E,A,0,7636,600000,9,03-10-2015,15:20:58
12117,2,G,G,1,20367,591753,9,03-10-2015,15:20:58
12117,3,C,C,1,9345,570859,9,03-10-2015,15:20:58
12117,4,F,F,1,17887,560994,9,03-10-2015,15:20:58
12117,5,H,C,0,37226,542585,9,03-10-2015,15:20:58
12117,6,E,E,1,10622,504830,9,03-10-2015,15:20:58
12117,7,B,B,1,25330,493683,9,03-10-2015,15:20:58
12117,8,B,A,0,19229,467824,9,03-10-2015,15:20:58
12117,9,F,F,1,13956,448064,9,03-10-2015,15:20:58
12117,10,C,C,1,23859,433585,9,03-10-2015,15:20:58
12117,11,H,B,0,16217,409193,9,03-10-2015,15:20:58
12117,12,F,F,1,20464,392447,9,03-10-2015,15:20:58
12117,13,G,A,0,24700,371455,9,03-10-2015,15:20:58
12117,14,G,C,0,26233,346229,9,03-10-2015,15:20:58
12117,15,F,B,0,12442,319471,9,03-10-2015,15:20:58
12117,16,D,H,0,36332,306508,9,03-10-2015,15:20:58
12117,17,E,E,1,37058,269653,9,03-10-2015,15:20:58
12117,18,C,D,0,49802,232065,9,03-10-2015,15:20:58
12118,1,E,E,1,21288,600000,14,03-10-2015,15:20:42
12118,2,G,G,1,6573,578107,14,03-10-2015,15:20:42
12118,3,C,C,1,8897,571009,14,03-10-2015,15:20:42
12118,4,F,F,1,11993,561527,14,03-10-2015,15:20:42
12118,5,H,H,1,12167,548997,14,03-10-2015,15:20:42
12118,6,E,E,1,6862,536285,14,03-10-2015,15:20:42
12118,7,B,B,1,16574,528888,14,03-10-2015,15:20:42
12118,8,B,B,1,23341,511759,14,03-10-2015,15:20:42
12118,9,F,C,0,55613,487868,14,03-10-2015,15:20:42
12118,10,C,C,1,81618,431718,14,03-10-2015,15:20:42
12118,11,H,H,1,33329,349577,14,03-10-2015,15:20:42
12118,12,F,F,1,51078,315704,14,03-10-2015,15:20:42
12118,13,G,G,1,133155,264103,14,03-10-2015,15:20:42
12118,14,G,G,1,98440,130410,14,03-10-2015,15:20:42
12121,1,E,E,1,26003,600000,4,03-11-2015,11:26:15
12121,2,G,G,1,30668,573375,4,03-11-2015,11:26:15
12121,3,C,C,1,44705,542185,4,03-11-2015,11:26:15
12121,4,F,B,0,59601,496948,4,03-11-2015,11:26:15
12121,5,H,A,0,79528,436818,4,03-11-2015,11:26:15
12121,6,E,D,0,54058,356759,4,03-11-2015,11:26:15
12121,7,B,E,0,33688,302177,4,03-11-2015,11:26:15
12121,8,B,B,1,43398,267953,4,03-11-2015,11:26:15
12121,9,F,C,0,54443,224034,4,03-11-2015,11:26:15
12121,10,C,E,0,25875,169068,4,03-11-2015,11:26:15
12121,11,H,A,0,45390,142660,4,03-11-2015,11:26:15
12122,1,E,H,0,48193,600000,1,03-11-2015,12:23:35
12122,2,G,D,0,37095,551197,1,03-11-2015,12:23:35
12122,3,C,A,0,25608,513575,1,03-11-2015,12:23:35
12122,4,F,B,0,19064,487432,1,03-11-2015,12:23:35
12122,5,H,C,0,23284,467839,1,03-11-2015,12:23:35
12122,6,E,C,0,17002,444029,1,03-11-2015,12:23:35
12122,7,B,C,0,28096,426501,1,03-11-2015,12:23:35
12122,8,B,A,0,15207,397875,1,03-11-2015,12:23:35
12122,9,F,C,0,16189,382147,1,03-11-2015,12:23:35
12122,10,C,D,0,28867,365436,1,03-11-2015,12:23:35
12122,11,H,E,0,13779,336044,1,03-11-2015,12:23:35
12122,12,F,F,1,12602,321732,1,03-11-2015,12:23:35
12122,13,G,A,0,16688,308602,1,03-11-2015,12:23:35
12122,14,G,D,0,18890,291391,1,03-11-2015,12:23:35
12122,15,F,C,0,15390,271980,1,03-11-2015,12:23:35
12122,16,D,E,0,36212,256068,1,03-11-2015,12:23:35
12122,17,E,H,0,18856,219329,1,03-11-2015,12:23:35
12122,18,C,F,0,19878,199951,1,03-11-2015,12:23:35
12123,1,E,E,1,13375,600000,10,03-11-2015,14:35:17
12123,2,G,G,1,12126,586004,10,03-11-2015,14:35:17
12123,3,C,C,1,15302,573358,10,03-11-2015,14:35:17
12123,4,F,F,1,32785,557528,10,03-11-2015,14:35:17
12123,5,H,H,1,11605,524222,10,03-11-2015,14:35:17
12123,6,E,E,1,12386,512092,10,03-11-2015,14:35:17
12123,7,B,B,1,29504,499179,10,03-11-2015,14:35:17
12123,8,B,B,1,39941,469155,10,03-11-2015,14:35:17
12123,9,F,C,0,33836,428683,10,03-11-2015,14:35:17
12123,10,C,C,1,30437,394326,10,03-11-2015,14:35:17
12123,11,H,A,0,162327,363369,10,03-11-2015,14:35:17
12123,12,F,F,1,105757,200515,10,03-11-2015,14:35:17
12124,1,E,E,1,17384,600000,8,03-12-2015,09:20:09
12124,2,G,G,1,17704,582004,8,03-12-2015,09:20:09
12124,3,C,C,1,19587,563777,8,03-12-2015,09:20:09
12124,4,F,F,1,16267,543666,8,03-12-2015,09:20:09
12124,5,H,H,1,49126,526871,8,03-12-2015,09:20:09
12124,6,E,E,1,30615,477219,8,03-12-2015,09:20:09
12124,7,B,F,0,20313,446078,8,03-12-2015,09:20:09
12124,8,B,H,0,35434,425217,8,03-12-2015,09:20:09
12124,9,F,F,1,13916,389228,8,03-12-2015,09:20:09
12124,10,C,C,1,14942,374765,8,03-12-2015,09:20:09
12124,11,H,A,0,69531,359286,8,03-12-2015,09:20:09
12124,12,F,H,0,213953,289222,8,03-12-2015,09:20:09
12125,1,E,D,0,8429,600000,9,03-12-2015,10:22:31
12125,2,G,G,1,13432,590953,9,03-12-2015,10:22:31
12125,3,C,F,0,11852,576974,9,03-12-2015,10:22:31
12125,4,F,F,1,14440,564594,9,03-12-2015,10:22:31
12125,5,H,H,1,12829,549633,9,03-12-2015,10:22:31
12125,6,E,E,1,14018,536270,9,03-12-2015,10:22:31
12125,7,B,B,1,17654,521725,9,03-12-2015,10:22:31
12125,8,B,B,1,25090,503547,9,03-12-2015,10:22:31
12125,9,F,F,1,7336,477922,9,03-12-2015,10:22:31
12125,10,C,C,1,30029,470041,9,03-12-2015,10:22:31
12125,11,H,D,0,12919,439484,9,03-12-2015,10:22:31
12125,12,F,C,0,18488,426038,9,03-12-2015,10:22:31
12125,13,G,B,0,23787,407027,9,03-12-2015,10:22:31
12125,14,G,G,1,33108,382701,9,03-12-2015,10:22:31
12125,15,F,C,0,28273,349062,9,03-12-2015,10:22:31
12125,16,D,C,0,11919,320238,9,03-12-2015,10:22:31
12125,17,E,C,0,21728,307775,9,03-12-2015,10:22:31
12125,18,C,B,0,27651,285515,9,03-12-2015,10:22:31
12126,1,E,E,1,42265,600000,10,03-12-2015,12:13:16
12126,2,G,G,1,13365,557130,10,03-12-2015,12:13:16
12126,3,C,C,1,9125,543234,10,03-12-2015,12:13:16
12126,4,F,B,0,14037,533585,10,03-12-2015,12:13:16
12126,5,H,H,1,11162,519025,10,03-12-2015,12:13:16
12126,6,E,E,1,10056,507329,10,03-12-2015,12:13:16
12126,7,B,B,1,25203,496749,10,03-12-2015,12:13:16
12126,8,B,B,1,15948,471023,10,03-12-2015,12:13:16
12126,9,F,F,1,18157,454545,10,03-12-2015,12:13:16
12126,10,C,E,0,43132,435868,10,03-12-2015,12:13:16
12126,11,H,A,0,28252,392215,10,03-12-2015,12:13:16
12126,12,F,E,0,26308,363440,10,03-12-2015,12:13:16
12126,13,G,B,0,30944,336599,10,03-12-2015,12:13:16
12126,14,G,F,0,18982,305125,10,03-12-2015,12:13:16
12126,15,F,B,0,35636,285615,10,03-12-2015,12:13:16
12126,16,D,B,0,40070,249458,10,03-12-2015,12:13:16
12126,17,E,E,1,21288,208855,10,03-12-2015,12:13:16
12126,18,C,C,1,21549,187046,10,03-12-2015,12:13:16
12127,1,E,E,1,14716,600000,8,03-12-2015,12:37:08
12127,2,G,G,1,43996,584655,8,03-12-2015,12:37:08
12127,3,C,C,1,38585,540118,8,03-12-2015,12:37:08
12127,4,F,B,0,61026,500978,8,03-12-2015,12:37:08
12127,5,H,H,1,37763,439414,8,03-12-2015,12:37:08
12127,6,E,E,1,33401,401125,8,03-12-2015,12:37:08
12127,7,B,B,1,66578,367202,8,03-12-2015,12:37:08
12127,8,B,H,0,31934,300087,8,03-12-2015,12:37:08
12127,9,F,F,1,64082,267631,8,03-12-2015,12:37:08
12127,10,C,C,1,123795,203000,8,03-12-2015,12:37:08
12129,1,E,E,1,39683,600000,5,03-13-2015,09:35:17
12129,2,G,G,1,7155,559695,5,03-13-2015,09:35:17
12129,3,C,A,0,43176,551980,5,03-13-2015,09:35:17
12129,4,F,D,0,8502,508275,5,03-13-2015,09:35:17
12129,5,H,E,0,6000,499229,5,03-13-2015,09:35:17
12129,6,E,E,1,17571,492698,5,03-13-2015,09:35:17
12129,7,B,E,0,38890,474603,5,03-13-2015,09:35:17
12129,8,B,B,1,35793,435180,5,03-13-2015,09:35:17
12129,9,F,F,1,44316,398808,5,03-13-2015,09:35:17
12129,10,C,B,0,24557,353971,5,03-13-2015,09:35:17
12129,11,H,A,0,26223,328879,5,03-13-2015,09:35:17
12129,12,F,C,0,24902,302119,5,03-13-2015,09:35:17
12129,13,G,C,0,17362,276694,5,03-13-2015,09:35:17
12129,14,G,F,0,13098,258766,5,03-13-2015,09:35:17
12129,15,F,A,0,11203,245103,5,03-13-2015,09:35:17
12129,16,D,C,0,13439,233356,5,03-13-2015,09:35:17
12129,17,E,D,0,20291,219361,5,03-13-2015,09:35:17
12129,18,C,F,0,27307,198517,5,03-13-2015,09:35:17
12133,1,E,E,1,22498,600000,15,03-13-2015,15:04:21
12133,2,G,G,1,14259,576889,15,03-13-2015,15:04:21
12133,3,C,C,1,9398,562027,15,03-13-2015,15:04:21
12133,4,F,F,1,19450,552079,15,03-13-2015,15:04:21
12133,5,H,H,1,5799,532086,15,03-13-2015,15:04:21
12133,6,E,E,1,17152,525721,15,03-13-2015,15:04:21
12133,7,B,B,1,19543,507976,15,03-13-2015,15:04:21
12133,8,B,B,1,37861,487865,15,03-13-2015,15:04:21
12133,9,F,F,1,19726,449410,15,03-13-2015,15:04:21
12133,10,C,C,1,12353,429132,15,03-13-2015,15:04:21
12133,11,H,D,0,41028,416236,15,03-13-2015,15:04:21
12133,12,F,F,1,22871,374614,15,03-13-2015,15:04:21
12133,13,G,G,1,27924,351188,15,03-13-2015,15:04:21
12133,14,G,G,1,45613,322713,15,03-13-2015,15:04:21
12133,15,F,G,0,52641,276526,15,03-13-2015,15:04:21
12133,16,D,G,0,68516,223340,15,03-13-2015,15:04:21
12133,17,E,E,1,52106,154278,15,03-13-2015,15:04:21
12133,18,C,C,1,34700,101610,15,03-13-2015,15:04:21
12134,1,E,E,1,17872,600000,10,03-13-2015,16:15:21
12134,2,G,G,1,9901,581505,10,03-13-2015,16:15:21
12134,3,C,C,1,11654,571076,10,03-13-2015,16:15:21
12134,4,F,F,1,24689,558895,10,03-13-2015,16:15:21
12134,5,H,A,0,26941,533669,10,03-13-2015,16:15:21
12134,6,E,E,1,9777,506194,10,03-13-2015,16:15:21
12134,7,B,E,0,11063,495879,10,03-13-2015,16:15:21
12134,8,B,B,1,16824,484267,10,03-13-2015,16:15:21
12134,9,F,F,1,12454,466889,10,03-13-2015,16:15:21
12134,10,C,C,1,18401,453910,10,03-13-2015,16:15:21
12134,11,H,D,0,12505,434982,10,03-13-2015,16:15:21
12134,12,F,H,0,33089,421935,10,03-13-2015,16:15:21
12134,13,G,G,1,27104,388312,10,03-13-2015,16:15:21
12134,14,G,D,0,20925,360687,10,03-13-2015,16:15:21
12134,15,F,F,1,16472,339227,10,03-13-2015,16:15:21
12134,16,D,C,0,29100,322230,10,03-13-2015,16:15:21
12134,17,E,A,0,29057,292607,10,03-13-2015,16:15:21
12134,18,C,D,0,15664,263015,10,03-13-2015,16:15:21
12135,1,E,E,1,56677,600000,13,03-13-2015,16:19:22
12135,2,G,G,1,13580,542716,13,03-13-2015,16:19:22
12135,3,C,C,1,16650,528604,13,03-13-2015,16:19:22
12135,4,F,F,1,10255,511425,13,03-13-2015,16:19:22
12135,5,H,H,1,6931,500646,13,03-13-2015,16:19:22
12135,6,E,E,1,14586,493181,13,03-13-2015,16:19:22
12135,7,B,B,1,21240,478069,13,03-13-2015,16:19:22
12135,8,B,B,1,15318,456307,13,03-13-2015,16:19:22
12135,9,F,F,1,6344,440447,13,03-13-2015,16:19:22
12135,10,C,C,1,16470,433582,13,03-13-2015,16:19:22
12135,11,H,D,0,79040,416586,13,03-13-2015,16:19:22
12135,12,F,H,0,48956,337011,13,03-13-2015,16:19:22
12135,13,G,A,0,36253,287525,13,03-13-2015,16:19:22
12135,14,G,G,1,84291,250753,13,03-13-2015,16:19:22
12135,15,F,H,0,43271,165928,13,03-13-2015,16:19:22
12135,16,D,D,1,79440,122124,13,03-13-2015,16:19:22
12136,1,E,E,1,29448,600000,9,03-16-2015,09:21:38
12136,2,G,G,1,16048,569942,9,03-16-2015,09:21:38
12136,3,C,C,1,13661,553363,9,03-16-2015,09:21:38
12136,4,F,B,0,35063,539167,9,03-16-2015,09:21:38
12136,5,H,H,1,28976,503578,9,03-16-2015,09:21:38
12136,6,E,E,1,40730,474069,9,03-16-2015,09:21:38
12136,7,B,E,0,26018,432815,9,03-16-2015,09:21:38
12136,8,B,B,1,62232,406272,9,03-16-2015,09:21:38
12136,9,F,F,1,16810,343507,9,03-16-2015,09:21:38
12136,10,C,E,0,38935,326162,9,03-16-2015,09:21:38
12136,11,H,H,1,31022,286707,9,03-16-2015,09:21:38
12136,12,F,E,0,42911,255149,9,03-16-2015,09:21:38
12136,13,G,H,0,65717,211712,9,03-16-2015,09:21:38
12136,14,G,D,0,32693,145464,9,03-16-2015,09:21:38
12136,15,F,G,0,48378,112240,9,03-16-2015,09:21:38
12137,1,E,E,1,18659,600000,10,03-16-2015,11:35:51
12137,2,G,G,1,14864,580722,10,03-16-2015,11:35:51
12137,3,C,C,1,18403,565327,10,03-16-2015,11:35:51
12137,4,F,F,1,44330,546399,10,03-16-2015,11:35:51
12137,5,H,H,1,51105,501546,10,03-16-2015,11:35:51
12137,6,E,E,1,26180,449911,10,03-16-2015,11:35:51
12137,7,B,E,0,24095,423202,10,03-16-2015,11:35:51
12137,8,B,H,0,25851,398575,10,03-16-2015,11:35:51
12137,9,F,F,1,11482,372199,10,03-16-2015,11:35:51
12137,10,C,C,1,21324,360187,10,03-16-2015,11:35:51
12137,11,H,D,0,27967,338343,10,03-16-2015,11:35:51
12137,12,F,F,1,60368,309852,10,03-16-2015,11:35:51
12137,13,G,G,1,41867,248954,10,03-16-2015,11:35:51
12137,14,G,D,0,28389,206549,10,03-16-2015,11:35:51
12137,15,F,C,0,56846,177641,10,03-16-2015,11:35:51
12137,16,D,F,0,82450,120274,10,03-16-2015,11:35:51
12138,1,E,E,1,22881,600000,9,03-16-2015,14:33:40
12138,2,G,G,1,19494,576507,9,03-16-2015,14:33:40
12138,3,C,B,0,28530,556479,9,03-16-2015,14:33:40
12138,4,F,B,0,26430,527420,9,03-16-2015,14:33:40
12138,5,H,H,1,25526,500462,9,03-16-2015,14:33:40
12138,6,E,E,1,26745,474403,9,03-16-2015,14:33:40
12138,7,B,B,1,27732,447127,9,03-16-2015,14:33:40
12138,8,B,A,0,44015,418868,9,03-16-2015,14:33:40
12138,9,F,F,1,42564,374332,9,03-16-2015,14:33:40
12138,10,C,E,0,41907,331244,9,03-16-2015,14:33:40
12138,11,H,A,0,73689,288806,9,03-16-2015,14:33:40
12138,12,F,F,1,78449,214595,9,03-16-2015,14:33:40
12138,13,G,G,1,50742,135617,9,03-16-2015,14:33:40
12138,14,G,A,0,75341,84349,9,03-16-2015,14:33:40
12139,1,E,E,1,41218,600000,9,03-17-2015,14:25:32
12139,2,G,G,1,16447,558179,9,03-17-2015,14:25:32
12139,3,C,C,1,18107,541200,9,03-17-2015,14:25:32
12139,4,F,F,1,14806,522571,9,03-17-2015,14:25:32
12139,5,H,H,1,27340,507227,9,03-17-2015,14:25:32
12139,6,E,E,1,30263,479352,9,03-17-2015,14:25:32
12139,7,B,B,1,27159,448561,9,03-17-2015,14:25:32
12139,8,B,H,0,26210,420868,9,03-17-2015,14:25:32
12139,9,F,F,1,18890,394126,9,03-17-2015,14:25:32
12139,10,C,E,0,17102,374699,9,03-17-2015,14:25:32
12139,11,H,A,0,26400,357070,9,03-17-2015,14:25:32
12139,12,F,E,0,33281,330144,9,03-17-2015,14:25:32
12139,13,G,H,0,32951,296321,9,03-17-2015,14:25:32
12139,14,G,E,0,38891,262847,9,03-17-2015,14:25:32
12139,15,F,E,0,54474,223409,9,03-17-2015,14:25:32
12139,16,D,F,0,68102,168407,9,03-17-2015,14:25:32
12139,17,E,B,0,67908,99778,9,03-17-2015,14:25:32
12140,1,E,A,0,13666,600000,9,03-18-2015,13:18:07
12140,2,G,G,1,7318,585721,9,03-18-2015,13:18:07
12140,3,C,C,1,16060,577873,9,03-18-2015,13:18:07
12140,4,F,B,0,18784,561277,9,03-18-2015,13:18:07
12140,5,H,H,1,44431,541967,9,03-18-2015,13:18:07
12140,6,E,E,1,16236,496997,9,03-18-2015,13:18:07
12140,7,B,E,0,30648,480235,9,03-18-2015,13:18:07
12140,8,B,E,0,15568,449043,9,03-18-2015,13:18:07
12140,9,F,F,1,12129,432949,9,03-18-2015,13:18:07
12140,10,C,E,0,26577,420286,9,03-18-2015,13:18:07
12140,11,H,H,1,41832,393177,9,03-18-2015,13:18:07
12140,12,F,A,0,52468,350806,9,03-18-2015,13:18:07
12140,13,G,G,1,49903,297805,9,03-18-2015,13:18:07
12140,14,G,G,1,78760,247353,9,03-18-2015,13:18:07
12140,15,F,B,0,125531,168060,9,03-18-2015,13:18:07
12141,1,E,E,1,17258,600000,6,03-23-2015,10:42:03
12141,2,G,G,1,31188,582138,6,03-23-2015,10:42:03
12141,3,C,C,1,22637,550365,6,03-23-2015,10:42:03
12141,4,F,F,1,25331,527154,6,03-23-2015,10:42:03
12141,5,H,G,0,17158,501280,6,03-23-2015,10:42:03
12141,6,E,E,1,22756,483569,6,03-23-2015,10:42:03
12141,7,B,G,0,33349,460225,6,03-23-2015,10:42:03
12141,8,B,F,0,14842,426335,6,03-23-2015,10:42:03
12141,9,F,C,0,14702,410957,6,03-23-2015,10:42:03
12141,10,C,H,0,21542,395712,6,03-23-2015,10:42:03
12141,11,H,E,0,38782,373602,6,03-23-2015,10:42:03
12141,12,F,G,0,10028,334263,6,03-23-2015,10:42:03
12141,13,G,D,0,23862,323684,6,03-23-2015,10:42:03
12141,14,G,D,0,11724,299258,6,03-23-2015,10:42:03
12141,15,F,A,0,29698,286978,6,03-23-2015,10:42:03
12141,16,D,C,0,15920,256736,6,03-23-2015,10:42:03
12141,17,E,E,1,11617,240276,6,03-23-2015,10:42:03
12141,18,C,A,0,12077,228113,6,03-23-2015,10:42:03
12142,1,E,E,1,14528,600000,6,03-23-2015,11:36:12
12142,2,G,H,0,32592,584854,6,03-23-2015,11:36:12
12142,3,C,C,1,16939,551731,6,03-23-2015,11:36:12
12142,4,F,D,0,64195,534268,6,03-23-2015,11:36:12
12142,5,H,A,0,23206,469538,6,03-23-2015,11:36:12
12142,6,E,C,0,44078,445812,6,03-23-2015,11:36:12
12142,7,B,B,1,15433,401209,6,03-23-2015,11:36:12
12142,8,B,B,1,49076,385246,6,03-23-2015,11:36:12
12142,9,F,F,1,45623,335645,6,03-23-2015,11:36:12
12142,10,C,H,0,61795,289492,6,03-23-2015,11:36:12
12142,11,H,B,0,42837,227160,6,03-23-2015,11:36:12
12142,12,F,G,0,35304,183789,6,03-23-2015,11:36:12
12142,13,G,E,0,32567,147950,6,03-23-2015,11:36:12
12142,14,G,D,0,40306,114860,6,03-23-2015,11:36:12
12142,15,F,C,0,12363,74022,6,03-23-2015,11:36:12
12142,16,D,C,0,51680,61125,6,03-23-2015,11:36:12
12143,1,E,E,1,22117,600000,3,03-23-2015,15:14:01
12143,2,G,H,0,14536,577273,3,03-23-2015,15:14:01
12143,3,C,C,1,10217,562194,3,03-23-2015,15:14:01
12143,4,F,D,0,8382,551446,3,03-23-2015,15:14:01
12143,5,H,D,0,20771,542533,3,03-23-2015,15:14:01
12143,6,E,C,0,12371,521240,3,03-23-2015,15:14:01
12143,7,B,F,0,8027,508310,3,03-23-2015,15:14:01
12143,8,B,G,0,11813,499762,3,03-23-2015,15:14:01
12143,9,F,C,0,16938,487399,3,03-23-2015,15:14:01
12143,10,C,B,0,12140,469938,3,03-23-2015,15:14:01
12143,11,H,G,0,7452,457275,3,03-23-2015,15:14:01
12143,12,F,F,1,17373,449277,3,03-23-2015,15:14:01
12143,13,G,H,0,12477,431382,3,03-23-2015,15:14:01
12143,14,G,D,0,5073,418352,3,03-23-2015,15:14:01
12143,15,F,G,0,7113,412755,3,03-23-2015,15:14:01
12143,16,D,C,0,19967,405090,3,03-23-2015,15:14:01
12143,17,E,G,0,13032,384563,3,03-23-2015,15:14:01
12143,18,C,F,0,2765,371000,3,03-23-2015,15:14:01
12144,1,E,E,1,23970,600000,10,03-25-2015,13:42:54
12144,2,G,G,1,82487,575424,10,03-25-2015,13:42:54
12144,3,C,C,1,27893,492398,10,03-25-2015,13:42:54
12144,4,F,F,1,40160,463955,10,03-25-2015,13:42:54
12144,5,H,H,1,83908,423251,10,03-25-2015,13:42:54
12144,6,E,E,1,38343,338809,10,03-25-2015,13:42:54
12144,7,B,E,0,39725,299937,10,03-25-2015,13:42:54
12144,8,B,B,1,68946,259665,10,03-25-2015,13:42:54
12144,9,F,F,1,66414,190169,10,03-25-2015,13:42:54
12144,10,C,C,1,27281,123222,10,03-25-2015,13:42:54
12144,11,H,H,1,49293,95397,10,03-25-2015,13:42:54
12147,1,E,E,1,13922,600000,6,03-26-2015,15:17:26
12147,2,G,H,0,22851,585471,6,03-26-2015,15:17:26
12147,3,C,A,0,17130,562094,6,03-26-2015,15:17:26
12147,4,F,E,0,17803,544432,6,03-26-2015,15:17:26
12147,5,H,H,1,16474,526105,6,03-26-2015,15:17:26
12147,6,E,E,1,32093,509110,6,03-26-2015,15:17:26
12147,7,B,C,0,27797,476486,6,03-26-2015,15:17:26
12147,8,B,B,1,19599,448160,6,03-26-2015,15:17:26
12147,9,F,F,1,15470,428034,6,03-26-2015,15:17:26
12147,10,C,A,0,18602,412038,6,03-26-2015,15:17:26
12147,11,H,E,0,26776,392910,6,03-26-2015,15:17:26
12147,12,F,B,0,7787,365602,6,03-26-2015,15:17:26
12147,13,G,C,0,5305,357288,6,03-26-2015,15:17:26
12147,14,G,C,0,5368,351456,6,03-26-2015,15:17:26
12147,15,F,F,1,22317,345558,6,03-26-2015,15:17:26
12147,16,D,G,0,32816,322713,6,03-26-2015,15:17:26
12147,17,E,B,0,8580,289374,6,03-26-2015,15:17:26
12147,18,C,F,0,8135,280260,6,03-26-2015,15:17:26
12148,1,E,E,1,20686,600000,11,03-27-2015,11:00:25
12148,2,G,G,1,11245,578640,11,03-27-2015,11:00:25
12148,3,C,C,1,6579,566710,11,03-27-2015,11:00:25
12148,4,F,F,1,7940,559478,11,03-27-2015,11:00:25
12148,5,H,H,1,10870,550882,11,03-27-2015,11:00:25
12148,6,E,E,1,19907,539369,11,03-27-2015,11:00:25
12148,7,B,E,0,19868,518792,11,03-27-2015,11:00:25
12148,8,B,H,0,14540,498348,11,03-27-2015,11:00:25
12148,9,F,F,1,11297,483152,11,03-27-2015,11:00:25
12148,10,C,C,1,14598,471223,11,03-27-2015,11:00:25
12148,11,H,H,1,38990,455993,11,03-27-2015,11:00:25
12148,12,F,E,0,54363,416355,11,03-27-2015,11:00:25
12148,13,G,H,0,30024,361306,11,03-27-2015,11:00:25
12148,14,G,G,1,37993,330615,11,03-27-2015,11:00:25
12148,15,F,F,1,29288,291927,11,03-27-2015,11:00:25
12148,16,D,E,0,23898,261968,11,03-27-2015,11:00:25
12148,17,E,C,0,44479,237427,11,03-27-2015,11:00:25
12148,18,C,A,0,26012,192257,11,03-27-2015,11:00:25
12153,1,E,E,1,15214,600000,4,03-27-2015,15:21:17
12153,2,G,G,1,33434,584171,4,03-27-2015,15:21:17
12153,3,C,F,0,23620,550215,4,03-27-2015,15:21:17
12153,4,F,F,1,22380,526071,4,03-27-2015,15:21:17
12153,5,H,G,0,36100,503162,4,03-27-2015,15:21:17
12153,6,E,C,0,29811,466540,4,03-27-2015,15:21:17
12153,7,B,E,0,23582,436199,4,03-27-2015,15:21:17
12153,8,B,E,0,38533,412089,4,03-27-2015,15:21:17
12153,9,F,F,1,24917,373035,4,03-27-2015,15:21:17
12153,10,C,B,0,35672,347592,4,03-27-2015,15:21:17
12153,11,H,D,0,36208,311387,4,03-27-2015,15:21:17
12153,12,F,D,0,28059,274647,4,03-27-2015,15:21:17
12153,13,G,H,0,17147,246056,4,03-27-2015,15:21:17
12153,14,G,B,0,20707,228378,4,03-27-2015,15:21:17
12153,15,F,G,0,39510,207151,4,03-27-2015,15:21:17
12153,16,D,G,0,39941,167113,4,03-27-2015,15:21:17
12153,17,E,H,0,29716,126643,4,03-27-2015,15:21:17
12153,18,C,F,0,11491,96402,4,03-27-2015,15:21:17
12154,1,E,E,1,34628,600000,6,03-27-2015,15:21:34
12154,2,G,G,1,31821,564760,6,03-27-2015,15:21:34
12154,3,C,C,1,24128,532419,6,03-27-2015,15:21:34
12154,4,F,B,0,85007,507759,6,03-27-2015,15:21:34
12154,5,H,H,1,51839,422218,6,03-27-2015,15:21:34
12154,6,E,D,0,26534,369850,6,03-27-2015,15:21:34
12154,7,B,E,0,77047,342791,6,03-27-2015,15:21:34
12154,8,B,B,1,83720,265214,6,03-27-2015,15:21:34
12154,9,F,F,1,19605,180972,6,03-27-2015,15:21:34
12154,10,C,E,0,50331,160844,6,03-27-2015,15:21:34
12154,11,H,A,0,60508,109993,6,03-27-2015,15:21:34
12155,1,E,E,1,52647,600000,5,03-27-2015,16:25:18
12155,2,G,H,0,53327,546650,5,03-27-2015,16:25:18
12155,3,C,C,1,74430,492667,5,03-27-2015,16:25:18
12155,4,F,B,0,56581,417656,5,03-27-2015,16:25:18
12155,5,H,E,0,52782,360408,5,03-27-2015,16:25:18
12155,6,E,E,1,29944,306941,5,03-27-2015,16:25:18
12155,7,B,G,0,26990,276283,5,03-27-2015,16:25:18
12155,8,B,F,0,22441,248592,5,03-27-2015,16:25:18
12155,9,F,F,1,29544,225450,5,03-27-2015,16:25:18
12155,10,C,D,0,22023,195210,5,03-27-2015,16:25:18
12155,11,H,A,0,13350,172517,5,03-27-2015,16:25:18
12155,12,F,A,0,12278,158438,5,03-27-2015,16:25:18
12155,13,G,A,0,12259,145425,5,03-27-2015,16:25:18
12155,14,G,B,0,9857,132495,5,03-27-2015,16:25:18
12155,15,F,H,0,9191,121949,5,03-27-2015,16:25:18
12155,16,D,B,0,30756,112119,5,03-27-2015,16:25:18
12155,17,E,E,1,44474,80679,5,03-27-2015,16:25:18
12155,18,C,B,0,3339,35542,5,03-27-2015,16:25:18
12160,1,E,E,1,14983,600000,3,04-03-2015,11:44:15
12160,2,G,G,1,16118,584405,3,04-03-2015,11:44:15
12160,3,C,A,0,24655,567760,3,04-03-2015,11:44:15
12160,4,F,B,0,43452,542583,3,04-03-2015,11:44:15
12160,5,H,C,0,57494,498580,3,04-03-2015,11:44:15
12160,6,E,D,0,39859,440564,3,04-03-2015,11:44:15
12160,7,B,E,0,40477,400177,3,04-03-2015,11:44:15
12160,8,B,F,0,15998,359171,3,04-03-2015,11:44:15
12160,9,F,F,1,35468,342610,3,04-03-2015,11:44:15
12160,10,C,E,0,63107,306621,3,04-03-2015,11:44:15
12160,11,H,E,0,82758,242990,3,04-03-2015,11:44:15
12160,12,F,D,0,33192,159682,3,04-03-2015,11:44:15
12160,13,G,A,0,33305,125959,3,04-03-2015,11:44:15
12161,1,E,A,0,17777,600000,5,04-03-2015,11:42:28
12161,2,G,G,1,13912,581605,5,04-03-2015,11:42:28
12161,3,C,C,1,12281,567143,5,04-03-2015,11:42:28
12161,4,F,E,0,12211,554313,5,04-03-2015,11:42:28
12161,5,H,G,0,11759,541567,5,04-03-2015,11:42:28
12161,6,E,E,1,12759,529271,5,04-03-2015,11:42:28
12161,7,B,E,0,8927,515992,5,04-03-2015,11:42:28
12161,8,B,H,0,11190,506543,5,04-03-2015,11:42:28
12161,9,F,C,0,8106,494815,5,04-03-2015,11:42:28
12161,10,C,C,1,8418,486101,5,04-03-2015,11:42:28
12161,11,H,H,1,9222,477153,5,04-03-2015,11:42:28
12161,12,F,G,0,16057,467388,5,04-03-2015,11:42:28
12161,13,G,C,0,6431,450811,5,04-03-2015,11:42:28
12161,14,G,B,0,9295,443846,5,04-03-2015,11:42:28
12161,15,F,A,0,7997,433933,5,04-03-2015,11:42:28
12161,16,D,E,0,12855,425351,5,04-03-2015,11:42:28
12161,17,E,B,0,8146,411906,5,04-03-2015,11:42:28
12161,18,C,A,0,1862,403174,5,04-03-2015,11:42:28
12162,1,E,E,1,38831,600000,9,04-03-2015,11:22:38
12162,2,G,G,1,18563,560546,9,04-03-2015,11:22:38
12162,3,C,C,1,9452,541452,9,04-03-2015,11:22:38
12162,4,F,F,1,14607,531470,9,04-03-2015,11:22:38
12162,5,H,H,1,44931,516343,9,04-03-2015,11:22:38
12162,6,E,E,1,18789,470873,9,04-03-2015,11:22:38
12162,7,B,E,0,24436,451562,9,04-03-2015,11:22:38
12162,8,B,B,1,40738,426603,9,04-03-2015,11:22:38
12162,9,F,D,0,91125,385333,9,04-03-2015,11:22:38
12162,10,C,C,1,27588,293677,9,04-03-2015,11:22:38
12162,11,H,A,0,35054,265569,9,04-03-2015,11:22:38
12162,12,F,C,0,171365,229980,9,04-03-2015,11:22:38
12163,1,E,E,1,16190,600000,3,04-06-2015,11:39:52
12163,2,G,D,0,34965,583205,3,04-06-2015,11:39:52
12163,3,C,C,1,29202,547716,3,04-06-2015,11:39:52
12163,4,F,F,1,17677,517990,3,04-06-2015,11:39:52
12163,5,H,F,0,55901,499780,3,04-06-2015,11:39:52
12163,6,E,C,0,20411,443347,3,04-06-2015,11:39:52
12163,7,B,F,0,13842,422403,3,04-06-2015,11:39:52
12163,8,B,G,0,39142,408039,3,04-06-2015,11:39:52
12163,9,F,C,0,20109,368368,3,04-06-2015,11:39:52
12163,10,C,A,0,19496,347725,3,04-06-2015,11:39:52
12163,11,H,B,0,18788,327697,3,04-06-2015,11:39:52
12163,12,F,B,0,20371,308385,3,04-06-2015,11:39:52
12163,13,G,A,0,19204,287493,3,04-06-2015,11:39:52
12163,14,G,C,0,22828,267765,3,04-06-2015,11:39:52
12163,15,F,C,0,8851,244405,3,04-06-2015,11:39:52
12163,16,D,E,0,14765,235025,3,04-06-2015,11:39:52
12163,17,E,B,0,3158,219729,3,04-06-2015,11:39:52
12163,18,C,E,0,2868,216047,3,04-06-2015,11:39:52
12166,1,E,E,1,15198,600000,10,04-07-2015,14:42:16
12166,2,G,G,1,14715,584187,10,04-07-2015,14:42:16
12166,3,C,A,0,23786,568891,10,04-07-2015,14:42:16
12166,4,F,B,0,22642,544547,10,04-07-2015,14:42:16
12166,5,H,H,1,61423,521336,10,04-07-2015,14:42:16
12166,6,E,E,1,40363,459369,10,04-07-2015,14:42:16
12166,7,B,A,0,11877,418345,10,04-07-2015,14:42:16
12166,8,B,B,1,40430,405849,10,04-07-2015,14:42:16
12166,9,F,F,1,22143,364859,10,04-07-2015,14:42:16
12166,10,C,C,1,25623,342115,10,04-07-2015,14:42:16
12166,11,H,H,1,59765,315938,10,04-07-2015,14:42:16
12166,12,F,E,0,62749,255585,10,04-07-2015,14:42:16
12166,13,G,G,1,23088,192269,10,04-07-2015,14:42:16
12166,14,G,D,0,62747,168625,10,04-07-2015,14:42:16
12166,15,F,G,0,40086,105341,10,04-07-2015,14:42:16
12167,1,E,E,1,16921,600000,5,04-08-2015,11:54:23
12167,2,G,G,1,13563,582472,5,04-08-2015,11:54:23
12167,3,C,C,1,10867,568376,5,04-08-2015,11:54:23
12167,4,F,B,0,10574,556978,5,04-08-2015,11:54:23
12167,5,H,A,0,17020,545883,5,04-08-2015,11:54:23
12167,6,E,A,0,22706,528338,5,04-08-2015,11:54:23
12167,7,B,E,0,14831,505111,5,04-08-2015,11:54:23
12167,8,B,F,0,16948,489749,5,04-08-2015,11:54:23
12167,9,F,D,0,24523,472271,5,04-08-2015,11:54:23
12167,10,C,C,1,10728,447212,5,04-08-2015,11:54:23
12167,11,H,E,0,17616,435948,5,04-08-2015,11:54:23
12167,12,F,F,1,26469,417804,5,04-08-2015,11:54:23
12167,13,G,A,0,23892,390812,5,04-08-2015,11:54:23
12167,14,G,C,0,24432,366386,5,04-08-2015,11:54:23
12167,15,F,G,0,20232,341426,5,04-08-2015,11:54:23
12167,16,D,H,0,27037,320666,5,04-08-2015,11:54:23
12167,17,E,B,0,22238,293107,5,04-08-2015,11:54:23
12167,18,C,A,0,9366,270347,5,04-08-2015,11:54:23
12168,1,E,E,1,12983,600000,9,04-09-2015,15:10:52
12168,2,G,G,1,13357,586404,9,04-09-2015,15:10:52
12168,3,C,C,1,12790,572525,9,04-09-2015,15:10:52
12168,4,F,F,1,42874,559211,9,04-09-2015,15:10:52
12168,5,H,C,0,81618,515808,9,04-09-2015,15:10:52
12168,6,E,E,1,10843,433666,9,04-09-2015,15:10:52
12168,7,B,G,0,69100,422302,9,04-09-2015,15:10:52
12168,8,B,B,1,56034,352672,9,04-09-2015,15:10:52
12168,9,F,C,0,13668,296106,9,04-09-2015,15:10:52
12168,10,C,C,1,25414,281911,9,04-09-2015,15:10:52
12168,11,H,D,0,16399,255968,9,04-09-2015,15:10:52
12168,12,F,F,1,48299,239040,9,04-09-2015,15:10:52
12168,13,G,A,0,87571,190220,9,04-09-2015,15:10:52
12168,14,G,E,0,64013,102114,9,04-09-2015,15:10:52
12170,1,E,E,1,37436,600000,4,04-10-2015,09:37:40
12170,2,G,G,1,26230,561944,4,04-10-2015,09:37:40
12170,3,C,C,1,12022,535169,4,04-10-2015,09:37:40
12170,4,F,B,0,16955,522605,4,04-10-2015,09:37:40
12170,5,H,H,1,13187,505127,4,04-10-2015,09:37:40
12170,6,E,F,0,15601,491399,4,04-10-2015,09:37:40
12170,7,B,C,0,2072,475254,4,04-10-2015,09:37:40
12170,8,B,F,0,600,472654,4,04-10-2015,09:37:40
12170,9,F,D,0,460,471521,4,04-10-2015,09:37:40
12170,10,C,A,0,437,470538,4,04-10-2015,09:37:40
12170,11,H,G,0,358,469572,4,04-10-2015,09:37:40
12170,12,F,C,0,1211,468689,4,04-10-2015,09:37:40
12170,13,G,F,0,582,466939,4,04-10-2015,09:37:40
12170,14,G,D,0,377,465823,4,04-10-2015,09:37:40
12170,15,F,H,0,325,464923,4,04-10-2015,09:37:40
12170,16,D,A,0,634,464073,4,04-10-2015,09:37:40
12170,17,E,C,0,540,462891,4,04-10-2015,09:37:40
12170,18,C,F,0,449,461824,4,04-10-2015,09:37:40
12171,1,E,E,1,13970,600000,5,04-13-2015,10:25:43
12171,2,G,G,1,27232,585421,5,04-13-2015,10:25:43
12171,3,C,C,1,32624,557662,5,04-13-2015,10:25:43
12171,4,F,H,0,16378,524505,5,04-13-2015,10:25:43
12171,5,H,D,0,34841,507594,5,04-13-2015,10:25:43
12171,6,E,E,1,26058,472221,5,04-13-2015,10:25:43
12171,7,B,E,0,29328,445629,5,04-13-2015,10:25:43
12171,8,B,B,1,34948,415771,5,04-13-2015,10:25:43
12171,9,F,C,0,32753,380299,5,04-13-2015,10:25:43
12171,10,C,E,0,27326,347025,5,04-13-2015,10:25:43
12171,11,H,D,0,28394,319167,5,04-13-2015,10:25:43
12171,12,F,H,0,37050,290242,5,04-13-2015,10:25:43
12171,13,G,H,0,29100,252670,5,04-13-2015,10:25:43
12171,14,G,F,0,27467,223029,5,04-13-2015,10:25:43
12171,15,F,G,0,27353,195038,5,04-13-2015,10:25:43
12171,16,D,A,0,39219,167163,5,04-13-2015,10:25:43
12171,17,E,D,0,33062,127408,5,04-13-2015,10:25:43
12171,18,C,D,0,11463,93818,5,04-13-2015,10:25:43
12172,1,E,E,1,17159,600000,4,04-13-2015,16:08:52
12172,2,G,H,0,16471,582221,4,04-13-2015,16:08:52
12172,3,C,B,0,10619,565227,4,04-13-2015,16:08:52
12172,4,F,B,0,1112,554079,4,04-13-2015,16:08:52
12172,5,H,B,0,400,552447,4,04-13-2015,16:08:52
12172,6,E,G,0,602,551514,4,04-13-2015,16:08:52
12172,7,B,E,0,637,550381,4,04-13-2015,16:08:52
12172,8,B,B,1,527,549214,4,04-13-2015,16:08:52
12172,9,F,G,0,461,548165,4,04-13-2015,16:08:52
12172,10,C,H,0,366,547182,4,04-13-2015,16:08:52
12172,11,H,B,0,522,546282,4,04-13-2015,16:08:52
12172,12,F,B,0,4200,545233,4,04-13-2015,16:08:52
12172,13,G,G,1,444,540501,4,04-13-2015,16:08:52
12172,14,G,E,0,542,539534,4,04-13-2015,16:08:52
12172,15,F,F,1,323,538468,4,04-13-2015,16:08:52
12172,16,D,G,0,386,537618,4,04-13-2015,16:08:52
12172,17,E,H,0,237,536702,4,04-13-2015,16:08:52
12172,18,C,B,0,503,535935,4,04-13-2015,16:08:52
12173,1,E,E,1,15025,600000,3,04-13-2015,16:41:49
12173,2,G,A,0,22245,584372,3,04-13-2015,16:41:49
12173,3,C,H,0,7469,561595,3,04-13-2015,16:41:49
12173,4,F,B,0,14486,553596,3,04-13-2015,16:41:49
12173,5,H,E,0,7882,538585,3,04-13-2015,16:41:49
12173,6,E,E,1,20393,530171,3,04-13-2015,16:41:49
12173,7,B,C,0,6434,509244,3,04-13-2015,16:41:49
12173,8,B,G,0,15933,502278,3,04-13-2015,16:41:49
12173,9,F,B,0,7183,485817,3,04-13-2015,16:41:49
12173,10,C,C,1,14164,478103,3,04-13-2015,16:41:49
12173,11,H,A,0,4044,463407,3,04-13-2015,16:41:49
12173,12,F,A,0,7470,458842,3,04-13-2015,16:41:49
12173,13,G,F,0,15271,450844,3,04-13-2015,16:41:49
12173,14,G,B,0,6212,435049,3,04-13-2015,16:41:49
12173,15,F,A,0,9311,428318,3,04-13-2015,16:41:49
12173,16,D,B,0,6377,418487,3,04-13-2015,16:41:49
12173,17,E,D,0,11934,411589,3,04-13-2015,16:41:49
12173,18,C,A,0,15230,399126,3,04-13-2015,16:41:49
12174,1,E,E,1,44071,600000,3,04-14-2015,09:09:10
12174,2,G,A,0,81806,555313,3,04-14-2015,09:09:10
12174,3,C,G,0,58148,472971,3,04-14-2015,09:09:10
12174,4,F,B,0,85940,414271,3,04-14-2015,09:09:10
12174,5,H,C,0,89171,327798,3,04-14-2015,09:09:10
12174,6,E,G,0,44519,238074,3,04-14-2015,09:09:10
12174,7,B,G,0,64742,193020,3,04-14-2015,09:09:10
12174,8,B,B,1,49370,127756,3,04-14-2015,09:09:10
12174,9,F,D,0,47146,77839,3,04-14-2015,09:09:10
12175,1,E,E,1,20215,600000,2,04-14-2015,09:15:35
12175,2,G,D,0,29294,579173,2,04-14-2015,09:15:35
12175,3,C,F,0,20676,549348,2,04-14-2015,09:15:35
12175,4,F,E,0,23712,528137,2,04-14-2015,09:15:35
12175,5,H,D,0,24348,503895,2,04-14-2015,09:15:35
12175,6,E,H,0,28983,479019,2,04-14-2015,09:15:35
12175,7,B,B,1,36641,449511,2,04-14-2015,09:15:35
12175,8,B,E,0,22218,412339,2,04-14-2015,09:15:35
12175,9,F,A,0,10947,389595,2,04-14-2015,09:15:35
12175,10,C,E,0,6202,378116,2,04-14-2015,09:15:35
12175,11,H,A,0,10375,371384,2,04-14-2015,09:15:35
12175,12,F,H,0,14677,360487,2,04-14-2015,09:15:35
12175,13,G,F,0,6272,345275,2,04-14-2015,09:15:35
12175,14,G,H,0,7442,338477,2,04-14-2015,09:15:35
12175,15,F,E,0,7084,330513,2,04-14-2015,09:15:35
12175,16,D,H,0,36140,322898,2,04-14-2015,09:15:35
12175,17,E,H,0,11852,286226,2,04-14-2015,09:15:35
12175,18,C,A,0,15583,273846,2,04-14-2015,09:15:35
12176,1,E,E,1,21307,600000,12,04-14-2015,09:44:28
12176,2,G,G,1,11863,578073,12,04-14-2015,09:44:28
12176,3,C,C,1,11441,565676,12,04-14-2015,09:44:28
12176,4,F,F,1,14308,553697,12,04-14-2015,09:44:28
12176,5,H,H,1,24877,538834,12,04-14-2015,09:44:28
12176,6,E,E,1,13171,513408,12,04-14-2015,09:44:28
12176,7,B,E,0,17146,499713,12,04-14-2015,09:44:28
12176,8,B,B,1,26777,482034,12,04-14-2015,09:44:28
12176,9,F,F,1,35642,454709,12,04-14-2015,09:44:28
12176,10,C,H,0,61114,418520,12,04-14-2015,09:44:28
12176,11,H,A,0,25904,356871,12,04-14-2015,09:44:28
12176,12,F,F,1,63578,330446,12,04-14-2015,09:44:28
12176,13,G,G,1,69331,266331,12,04-14-2015,09:44:28
12176,14,G,G,1,18788,196452,12,04-14-2015,09:44:28
12176,15,F,G,0,39515,177141,12,04-14-2015,09:44:28
12176,16,D,C,0,114533,137103,12,04-14-2015,09:44:28
12177,1,E,A,0,53368,600000,6,04-14-2015,11:21:20
12177,2,G,G,1,26138,546015,6,04-14-2015,11:21:20
12177,3,C,C,1,51395,519356,6,04-14-2015,11:21:20
12177,4,F,B,0,56787,467420,6,04-14-2015,11:21:20
12177,5,H,C,0,54563,410104,6,04-14-2015,11:21:20
12177,6,E,E,1,71179,355020,6,04-14-2015,11:21:20
12177,7,B,B,1,47376,283307,6,04-14-2015,11:21:20
12177,8,B,B,1,48391,235403,6,04-14-2015,11:21:20
12177,9,F,C,0,43356,186485,6,04-14-2015,11:21:20
12177,10,C,C,1,29274,142564,6,04-14-2015,11:21:20
12177,11,H,A,0,28473,112756,6,04-14-2015,11:21:20
12177,12,F,G,0,11680,83747,6,04-14-2015,11:21:20
12177,13,G,F,0,34442,71534,6,04-14-2015,11:21:20
12177,14,G,B,0,35210,36561,6,04-14-2015,11:21:20
12178,1,E,E,1,74463,600000,5,04-14-2015,11:20:06
12178,2,G,G,1,58593,524923,5,04-14-2015,11:20:06
12178,3,C,C,1,65057,465807,5,04-14-2015,11:20:06
12178,4,F,F,1,89120,400225,5,04-14-2015,11:20:06
12178,5,H,A,0,90297,310586,5,04-14-2015,11:20:06
12178,6,E,E,1,97629,219763,5,04-14-2015,11:20:06
12178,7,B,E,0,61175,121608,5,04-14-2015,11:20:06
12179,1,E,E,1,23939,600000,3,04-14-2015,12:11:31
12179,2,G,G,1,31413,575424,3,04-14-2015,12:11:31
12179,3,C,E,0,36095,543484,3,04-14-2015,12:11:31
12179,4,F,E,0,22758,506861,3,04-14-2015,12:11:31
12179,5,H,C,0,23520,483569,3,04-14-2015,12:11:31
12179,6,E,E,1,42466,459526,3,04-14-2015,12:11:31
12179,7,B,F,0,29126,416538,3,04-14-2015,12:11:31
12179,8,B,F,0,12883,386881,3,04-14-2015,12:11:31
12179,9,F,D,0,21509,373468,3,04-14-2015,12:11:31
12179,10,C,E,0,15264,351425,3,04-14-2015,12:11:31
12179,11,H,D,0,17020,335630,3,04-14-2015,12:11:31
12179,12,F,G,0,20074,318085,3,04-14-2015,12:11:31
12179,13,G,A,0,20759,297474,3,04-14-2015,12:11:31
12179,14,G,B,0,9216,276181,3,04-14-2015,12:11:31
12179,15,F,B,0,27666,266434,3,04-14-2015,12:11:31
12179,16,D,H,0,50336,238224,3,04-14-2015,12:11:31
12179,17,E,H,0,15394,187357,3,04-14-2015,12:11:31
12179,18,C,A,0,32495,171412,3,04-14-2015,12:11:31
12180,1,E,E,1,7607,600000,12,04-14-2015,12:59:11
12180,2,G,G,1,15691,591786,12,04-14-2015,12:59:11
12180,3,C,C,1,24509,575574,12,04-14-2015,12:59:11
12180,4,F,F,1,32681,550530,12,04-14-2015,12:59:11
12180,5,H,H,1,47039,517324,12,04-14-2015,12:59:11
12180,6,E,G,0,63793,469738,12,04-14-2015,12:59:11
12180,7,B,B,1,27781,405424,12,04-14-2015,12:59:11
12180,8,B,B,1,44127,377115,12,04-14-2015,12:59:11
12180,9,F,F,1,32095,332462,12,04-14-2015,12:59:11
12180,10,C,C,1,29221,299822,12,04-14-2015,12:59:11
12180,11,H,E,0,101809,270080,12,04-14-2015,12:59:11
12180,12,F,F,1,104363,167728,12,04-14-2015,12:59:11
12180,13,G,G,1,53378,62842,12,04-14-2015,12:59:11
12181,1,E,E,1,20116,600000,16,04-14-2015,14:27:44
12181,2,G,G,1,13024,579273,16,04-14-2015,14:27:44
12181,3,C,C,1,10309,565727,16,04-14-2015,14:27:44
12181,4,F,F,1,18286,554896,16,04-14-2015,14:27:44
12181,5,H,H,1,6803,536085,16,04-14-2015,14:27:44
12181,6,E,E,1,12687,528754,16,04-14-2015,14:27:44
12181,7,B,B,1,24872,515541,16,04-14-2015,14:27:44
12181,8,B,B,1,35741,490147,16,04-14-2015,14:27:44
12181,9,F,F,1,10901,453876,16,04-14-2015,14:27:44
12181,10,C,C,1,19685,442446,16,04-14-2015,14:27:44
12181,11,H,H,1,117868,422236,16,04-14-2015,14:27:44
12181,12,F,F,1,34892,303837,16,04-14-2015,14:27:44
12181,13,G,G,1,36714,268414,16,04-14-2015,14:27:44
12181,14,G,G,1,65264,231175,16,04-14-2015,14:27:44
12181,15,F,F,1,85582,165378,16,04-14-2015,14:27:44
12183,1,E,C,0,5427,600000,3,04-14-2015,16:05:31
12183,2,G,D,0,19828,593968,3,04-14-2015,16:05:31
12183,3,C,H,0,7132,573607,3,04-14-2015,16:05:31
12183,4,F,H,0,19226,565942,3,04-14-2015,16:05:31
12183,5,H,H,1,11073,546182,3,04-14-2015,16:05:31
12183,6,E,C,0,4444,534586,3,04-14-2015,16:05:31
12183,7,B,G,0,6823,529620,3,04-14-2015,16:05:31
12183,8,B,F,0,13282,522272,3,04-14-2015,16:05:31
12183,9,F,F,1,10324,508460,3,04-14-2015,16:05:31
12183,10,C,C,1,2966,497613,3,04-14-2015,16:05:31
12183,11,H,E,0,1739,494114,3,04-14-2015,16:05:31
12183,12,F,B,0,793,491848,3,04-14-2015,16:05:31
12183,13,G,D,0,2044,490532,3,04-14-2015,16:05:31
12183,14,G,H,0,5245,487966,3,04-14-2015,16:05:31
12183,15,F,E,0,6168,482201,3,04-14-2015,16:05:31
12183,16,D,F,0,1814,475503,3,04-14-2015,16:05:31
12183,17,E,D,0,6128,473154,3,04-14-2015,16:05:31
12183,18,C,E,0,7895,466506,3,04-14-2015,16:05:31
12184,1,E,E,1,24584,600000,5,04-15-2015,12:42:59
12184,2,G,H,0,35672,574808,5,04-15-2015,12:42:59
12184,3,C,C,1,13377,538585,5,04-15-2015,12:42:59
12184,4,F,F,1,34222,524655,5,04-15-2015,12:42:59
12184,5,H,F,0,14856,489900,5,04-15-2015,12:42:59
12184,6,E,A,0,17461,474504,5,04-15-2015,12:42:59
12184,7,B,G,0,12449,456510,5,04-15-2015,12:42:59
12184,8,B,F,0,22188,443529,5,04-15-2015,12:42:59
12184,9,F,F,1,13580,420804,5,04-15-2015,12:42:59
12184,10,C,C,1,20554,406675,5,04-15-2015,12:42:59
12184,11,H,B,0,19747,385597,5,04-15-2015,12:42:59
12184,12,F,B,0,18469,365303,5,04-15-2015,12:42:59
12184,13,G,F,0,8650,346309,5,04-15-2015,12:42:59
12184,14,G,F,0,20428,337129,5,04-15-2015,12:42:59
12184,15,F,C,0,13131,316168,5,04-15-2015,12:42:59
12184,16,D,B,0,30786,302505,5,04-15-2015,12:42:59
12184,17,E,A,0,16533,271198,5,04-15-2015,12:42:59
12184,18,C,D,0,16863,254120,5,04-15-2015,12:42:59
12186,1,E,E,1,26237,600000,13,04-15-2015,14:33:50
12186,2,G,G,1,12927,573158,13,04-15-2015,14:33:50
12186,3,C,C,1,51861,559712,13,04-15-2015,14:33:50
12186,4,F,F,1,20922,507326,13,04-15-2015,14:33:50
12186,5,H,H,1,11015,485884,13,04-15-2015,14:33:50
12186,6,E,E,1,11651,474337,13,04-15-2015,14:33:50
12186,7,B,E,0,33646,462158,13,04-15-2015,14:33:50
12186,8,B,B,1,40686,427983,13,04-15-2015,14:33:50
12186,9,F,F,1,29526,386746,13,04-15-2015,14:33:50
12186,10,C,C,1,28611,356689,13,04-15-2015,14:33:50
12186,11,H,H,1,66073,327547,13,04-15-2015,14:33:50
12186,12,F,F,1,27571,260934,13,04-15-2015,14:33:50
12186,13,G,G,1,49092,232842,13,04-15-2015,14:33:50
12186,14,G,B,0,32327,183223,13,04-15-2015,14:33:50
12186,15,F,G,0,45979,150350,13,04-15-2015,14:33:50
12186,16,D,E,0,34250,103847,13,04-15-2015,14:33:50
12186,17,E,G,0,34763,69074,13,04-15-2015,14:33:50
12186,18,C,C,1,31359,33784,13,04-15-2015,14:33:50
12187,1,E,E,1,20366,600000,16,04-15-2015,15:05:03
12187,2,G,G,1,15111,579023,16,04-15-2015,15:05:03
12187,3,C,C,1,11777,563361,16,04-15-2015,15:05:03
12187,4,F,F,1,14887,551063,16,04-15-2015,15:05:03
12187,5,H,H,1,5035,535652,16,04-15-2015,15:05:03
12187,6,E,E,1,10725,530087,16,04-15-2015,15:05:03
12187,7,B,B,1,25397,518840,16,04-15-2015,15:05:03
12187,8,B,B,1,26046,492913,16,04-15-2015,15:05:03
12187,9,F,F,1,12421,466322,16,04-15-2015,15:05:03
12187,10,C,C,1,29122,453375,16,04-15-2015,15:05:03
12187,11,H,H,1,33046,423733,16,04-15-2015,15:05:03
12187,12,F,F,1,32751,390143,16,04-15-2015,15:05:03
12187,13,G,G,1,21900,356870,16,04-15-2015,15:05:03
12187,14,G,G,1,37535,334443,16,04-15-2015,15:05:03
12187,15,F,F,1,55220,296387,16,04-15-2015,15:05:03
12187,16,D,G,0,56410,240635,16,04-15-2015,15:05:03
12187,17,E,E,1,25731,183702,16,04-15-2015,15:05:03
12187,18,C,A,0,52438,157443,16,04-15-2015,15:05:03
12195,1,E,E,1,39750,600000,8,04-16-2015,15:33:20
12195,2,G,E,0,13143,559629,8,04-16-2015,15:33:20
12195,3,C,C,1,16727,545967,8,04-16-2015,15:33:20
