Subject,Block,Trial,SetSize,SubTrial,SubTrialProc,RT,Accuracy,Response,CorrectResponse,MemoryItem,Processing.total,Recall.total,RotSpan.Absolute,RotSpan.Partial,RotSpan.Partial_Block1,RotSpan.Partial_Block2,RotSpan.RotationACC,RotSpan.RotationDuration,SessionDate,SessionTime
12000,1,1,2,1,ProcessingTask,559,1,FALSE,FALSE,8,2,2,14,31,17,14,1,,03-04-2015,12:03:09
12000,1,1,2,2,ProcessingTask,806,1,FALSE,FALSE,7,2,2,14,31,17,14,1,,03-04-2015,12:03:09
12000,1,1,2,3,Recall,,1,8,8,,2,2,14,31,17,14,1,,03-04-2015,12:03:09
12000,1,1,2,4,Recall,,1,7,7,,2,2,14,31,17,14,1,,03-04-2015,12:03:09
12000,1,2,7,1,ProcessingTask,710,1,TRUE,TRUE,8,7,3,14,31,17,14,1,,03-04-2015,12:03:09
12000,1,2,7,2,ProcessingTask,475,1,TRUE,TRUE,14,7,3,14,31,17,14,1,,03-04-2015,12:03:09
12000,1,2,7,3,ProcessingTask,594,1,TRUE,TRUE,4,7,3,14,31,17,14,1,,03-04-2015,12:03:09
12000,1,2,7,4,ProcessingTask,521,1,FALSE,FALSE,15,7,3,14,31,17,14,1,,03-04-2015,12:03:09
12000,1,2,7,5,ProcessingTask,521,1,TRUE,TRUE,6,7,3,14,31,17,14,1,,03-04-2015,12:03:09
12000,1,2,7,6,ProcessingTask,537,1,FALSE,FALSE,11,7,3,14,31,17,14,1,,03-04-2015,12:03:09
12000,1,2,7,7,ProcessingTask,801,1,FALSE,FALSE,7,7,3,14,31,17,14,1,,03-04-2015,12:03:09
12000,1,2,7,8,Recall,,1,8,8,,7,3,14,31,17,14,1,,03-04-2015,12:03:09
12000,1,2,7,9,Recall,,1,14,14,,7,3,14,31,17,14,1,,03-04-2015,12:03:09
12000,1,2,7,10,Recall,,0,6,4,,7,3,14,31,17,14,1,,03-04-2015,12:03:09
12000,1,2,7,11,Recall,,1,15,15,,7,3,14,31,17,14,1,,03-04-2015,12:03:09
12000,1,2,7,12,Recall,,0,11,6,,7,3,14,31,17,14,1,,03-04-2015,12:03:09
12000,1,2,7,13,Recall,,0,7,11,,7,3,14,31,17,14,1,,03-04-2015,12:03:09
12000,1,2,7,14,Recall,,,,7,,7,3,14,31,17,14,1,,03-04-2015,12:03:09
12000,1,3,4,1,ProcessingTask,1077,1,FALSE,FALSE,6,4,4,14,31,17,14,1,,03-04-2015,12:03:09
12000,1,3,4,2,ProcessingTask,530,1,TRUE,TRUE,14,4,4,14,31,17,14,1,,03-04-2015,12:03:09
12000,1,3,4,3,ProcessingTask,692,1,FALSE,FALSE,16,4,4,14,31,17,14,1,,03-04-2015,12:03:09
12000,1,3,4,4,ProcessingTask,635,1,TRUE,TRUE,11,4,4,14,31,17,14,1,,03-04-2015,12:03:09
12000,1,3,4,5,Recall,,1,6,6,,4,4,14,31,17,14,1,,03-04-2015,12:03:09
12000,1,3,4,6,Recall,,1,14,14,,4,4,14,31,17,14,1,,03-04-2015,12:03:09
12000,1,3,4,7,Recall,,1,16,16,,4,4,14,31,17,14,1,,03-04-2015,12:03:09
12000,1,3,4,8,Recall,,1,11,11,,4,4,14,31,17,14,1,,03-04-2015,12:03:09
12000,1,4,3,1,ProcessingTask,531,1,FALSE,FALSE,2,3,3,14,31,17,14,1,,03-04-2015,12:03:09
12000,1,4,3,2,ProcessingTask,640,1,TRUE,TRUE,13,3,3,14,31,17,14,1,,03-04-2015,12:03:09
12000,1,4,3,3,ProcessingTask,1051,1,FALSE,FALSE,1,3,3,14,31,17,14,1,,03-04-2015,12:03:09
12000,1,4,3,4,Recall,,1,2,2,,3,3,14,31,17,14,1,,03-04-2015,12:03:09
12000,1,4,3,5,Recall,,1,13,13,,3,3,14,31,17,14,1,,03-04-2015,12:03:09
12000,1,4,3,6,Recall,,1,1,1,,3,3,14,31,17,14,1,,03-04-2015,12:03:09
12000,1,5,5,1,ProcessingTask,739,1,TRUE,TRUE,3,5,4,14,31,17,14,1,,03-04-2015,12:03:09
12000,1,5,5,2,ProcessingTask,600,1,TRUE,TRUE,2,5,4,14,31,17,14,1,,03-04-2015,12:03:09
12000,1,5,5,3,ProcessingTask,547,1,FALSE,FALSE,4,5,4,14,31,17,14,1,,03-04-2015,12:03:09
12000,1,5,5,4,ProcessingTask,685,1,TRUE,TRUE,15,5,4,14,31,17,14,1,,03-04-2015,12:03:09
12000,1,5,5,5,ProcessingTask,623,1,TRUE,TRUE,1,5,4,14,31,17,14,1,,03-04-2015,12:03:09
12000,1,5,5,6,Recall,,1,3,3,,5,4,14,31,17,14,1,,03-04-2015,12:03:09
12000,1,5,5,7,Recall,,1,2,2,,5,4,14,31,17,14,1,,03-04-2015,12:03:09
12000,1,5,5,8,Recall,,1,4,4,,5,4,14,31,17,14,1,,03-04-2015,12:03:09
12000,1,5,5,9,Recall,,0,16,15,,5,4,14,31,17,14,1,,03-04-2015,12:03:09
12000,1,5,5,10,Recall,,1,1,1,,5,4,14,31,17,14,1,,03-04-2015,12:03:09
12000,1,6,6,1,ProcessingTask,755,1,TRUE,TRUE,7,6,1,14,31,17,14,1,,03-04-2015,12:03:09
12000,1,6,6,2,ProcessingTask,541,1,TRUE,TRUE,10,6,1,14,31,17,14,1,,03-04-2015,12:03:09
12000,1,6,6,3,ProcessingTask,581,1,FALSE,FALSE,8,6,1,14,31,17,14,1,,03-04-2015,12:03:09
12000,1,6,6,4,ProcessingTask,860,1,FALSE,FALSE,1,6,1,14,31,17,14,1,,03-04-2015,12:03:09
12000,1,6,6,5,ProcessingTask,639,1,FALSE,FALSE,14,6,1,14,31,17,14,1,,03-04-2015,12:03:09
12000,1,6,6,6,ProcessingTask,474,1,TRUE,TRUE,15,6,1,14,31,17,14,1,,03-04-2015,12:03:09
12000,1,6,6,7,Recall,,1,7,7,,6,1,14,31,17,14,1,,03-04-2015,12:03:09
12000,1,6,6,8,Recall,,0,4,10,,6,1,14,31,17,14,1,,03-04-2015,12:03:09
12000,1,6,6,9,Recall,,0,16,8,,6,1,14,31,17,14,1,,03-04-2015,12:03:09
12000,1,6,6,10,Recall,,0,10,1,,6,1,14,31,17,14,1,,03-04-2015,12:03:09
12000,1,6,6,11,Recall,,0,15,14,,6,1,14,31,17,14,1,,03-04-2015,12:03:09
12000,1,6,6,12,Recall,,,,15,,6,1,14,31,17,14,1,,03-04-2015,12:03:09
12000,2,1,7,1,ProcessingTask,605,1,FALSE,FALSE,3,7,5,14,31,17,14,1,,03-04-2015,12:03:09
12000,2,1,7,2,ProcessingTask,663,1,FALSE,FALSE,14,7,5,14,31,17,14,1,,03-04-2015,12:03:09
12000,2,1,7,3,ProcessingTask,664,1,FALSE,FALSE,13,7,5,14,31,17,14,1,,03-04-2015,12:03:09
12000,2,1,7,4,ProcessingTask,553,1,FALSE,FALSE,11,7,5,14,31,17,14,1,,03-04-2015,12:03:09
12000,2,1,7,5,ProcessingTask,961,1,TRUE,TRUE,7,7,5,14,31,17,14,1,,03-04-2015,12:03:09
12000,2,1,7,6,ProcessingTask,577,1,FALSE,FALSE,9,7,5,14,31,17,14,1,,03-04-2015,12:03:09
12000,2,1,7,7,ProcessingTask,480,1,FALSE,FALSE,4,7,5,14,31,17,14,1,,03-04-2015,12:03:09
12000,2,1,7,8,Recall,,1,3,3,,7,5,14,31,17,14,1,,03-04-2015,12:03:09
12000,2,1,7,9,Recall,,1,14,14,,7,5,14,31,17,14,1,,03-04-2015,12:03:09
12000,2,1,7,10,Recall,,0,16,13,,7,5,14,31,17,14,1,,03-04-2015,12:03:09
12000,2,1,7,11,Recall,,1,11,11,,7,5,14,31,17,14,1,,03-04-2015,12:03:09
12000,2,1,7,12,Recall,,1,7,7,,7,5,14,31,17,14,1,,03-04-2015,12:03:09
12000,2,1,7,13,Recall,,1,9,9,,7,5,14,31,17,14,1,,03-04-2015,12:03:09
12000,2,1,7,14,Recall,,,,4,,7,5,14,31,17,14,1,,03-04-2015,12:03:09
12000,2,2,5,1,ProcessingTask,741,1,TRUE,TRUE,4,5,0,14,31,17,14,1,,03-04-2015,12:03:09
12000,2,2,5,2,ProcessingTask,513,1,TRUE,TRUE,7,5,0,14,31,17,14,1,,03-04-2015,12:03:09
12000,2,2,5,3,ProcessingTask,467,1,TRUE,TRUE,6,5,0,14,31,17,14,1,,03-04-2015,12:03:09
12000,2,2,5,4,ProcessingTask,516,1,FALSE,FALSE,5,5,0,14,31,17,14,1,,03-04-2015,12:03:09
12000,2,2,5,5,ProcessingTask,509,1,FALSE,FALSE,2,5,0,14,31,17,14,1,,03-04-2015,12:03:09
12000,2,2,5,6,Recall,,0,7,4,,5,0,14,31,17,14,1,,03-04-2015,12:03:09
12000,2,2,5,7,Recall,,0,14,7,,5,0,14,31,17,14,1,,03-04-2015,12:03:09
12000,2,2,5,8,Recall,,0,3,6,,5,0,14,31,17,14,1,,03-04-2015,12:03:09
12000,2,2,5,9,Recall,,0,1,5,,5,0,14,31,17,14,1,,03-04-2015,12:03:09
12000,2,2,5,10,Recall,,,,2,,5,0,14,31,17,14,1,,03-04-2015,12:03:09
12000,2,3,4,1,ProcessingTask,608,1,TRUE,TRUE,10,4,1,14,31,17,14,1,,03-04-2015,12:03:09
12000,2,3,4,2,ProcessingTask,622,1,FALSE,FALSE,16,4,1,14,31,17,14,1,,03-04-2015,12:03:09
12000,2,3,4,3,ProcessingTask,600,1,TRUE,TRUE,7,4,1,14,31,17,14,1,,03-04-2015,12:03:09
12000,2,3,4,4,ProcessingTask,510,1,FALSE,FALSE,1,4,1,14,31,17,14,1,,03-04-2015,12:03:09
12000,2,3,4,5,Recall,,0,6,10,,4,1,14,31,17,14,1,,03-04-2015,12:03:09
12000,2,3,4,6,Recall,,0,2,16,,4,1,14,31,17,14,1,,03-04-2015,12:03:09
12000,2,3,4,7,Recall,,0,10,7,,4,1,14,31,17,14,1,,03-04-2015,12:03:09
12000,2,3,4,8,Recall,,1,1,1,,4,1,14,31,17,14,1,,03-04-2015,12:03:09
12000,2,4,2,1,ProcessingTask,341,1,TRUE,TRUE,4,2,2,14,31,17,14,1,,03-04-2015,12:03:09
12000,2,4,2,2,ProcessingTask,474,1,TRUE,TRUE,15,2,2,14,31,17,14,1,,03-04-2015,12:03:09
12000,2,4,2,3,Recall,,1,4,4,,2,2,14,31,17,14,1,,03-04-2015,12:03:09
12000,2,4,2,4,Recall,,1,15,15,,2,2,14,31,17,14,1,,03-04-2015,12:03:09
12000,2,5,3,1,ProcessingTask,508,1,TRUE,TRUE,13,3,3,14,31,17,14,1,,03-04-2015,12:03:09
12000,2,5,3,2,ProcessingTask,484,1,FALSE,FALSE,15,3,3,14,31,17,14,1,,03-04-2015,12:03:09
12000,2,5,3,3,ProcessingTask,541,1,FALSE,FALSE,5,3,3,14,31,17,14,1,,03-04-2015,12:03:09
12000,2,5,3,4,Recall,,1,13,13,,3,3,14,31,17,14,1,,03-04-2015,12:03:09
12000,2,5,3,5,Recall,,1,15,15,,3,3,14,31,17,14,1,,03-04-2015,12:03:09
12000,2,5,3,6,Recall,,1,5,5,,3,3,14,31,17,14,1,,03-04-2015,12:03:09
12000,2,6,6,1,ProcessingTask,699,1,FALSE,FALSE,6,6,3,14,31,17,14,1,,03-04-2015,12:03:09
12000,2,6,6,2,ProcessingTask,483,1,FALSE,FALSE,10,6,3,14,31,17,14,1,,03-04-2015,12:03:09
12000,2,6,6,3,ProcessingTask,507,1,TRUE,TRUE,1,6,3,14,31,17,14,1,,03-04-2015,12:03:09
12000,2,6,6,4,ProcessingTask,797,1,FALSE,FALSE,13,6,3,14,31,17,14,1,,03-04-2015,12:03:09
12000,2,6,6,5,ProcessingTask,461,1,FALSE,FALSE,5,6,3,14,31,17,14,1,,03-04-2015,12:03:09
12000,2,6,6,6,ProcessingTask,696,1,TRUE,TRUE,16,6,3,14,31,17,14,1,,03-04-2015,12:03:09
12000,2,6,6,7,Recall,,1,6,6,,6,3,14,31,17,14,1,,03-04-2015,12:03:09
12000,2,6,6,8,Recall,,1,10,10,,6,3,14,31,17,14,1,,03-04-2015,12:03:09
12000,2,6,6,9,Recall,,1,1,1,,6,3,14,31,17,14,1,,03-04-2015,12:03:09
12000,2,6,6,10,Recall,,0,16,13,,6,3,14,31,17,14,1,,03-04-2015,12:03:09
12000,2,6,6,11,Recall,,0,8,5,,6,3,14,31,17,14,1,,03-04-2015,12:03:09
12000,2,6,6,12,Recall,,,,16,,6,3,14,31,17,14,1,,03-04-2015,12:03:09
12002,1,1,5,1,ProcessingTask,618,1,FALSE,FALSE,9,5,1,14,22,10,12,1,,02-27-2015,14:51:04
12002,1,1,5,2,ProcessingTask,517,1,FALSE,FALSE,16,5,1,14,22,10,12,1,,02-27-2015,14:51:04
12002,1,1,5,3,ProcessingTask,620,1,TRUE,TRUE,15,5,1,14,22,10,12,1,,02-27-2015,14:51:04
12002,1,1,5,4,ProcessingTask,575,1,TRUE,TRUE,6,5,1,14,22,10,12,1,,02-27-2015,14:51:04
12002,1,1,5,5,ProcessingTask,485,1,TRUE,TRUE,1,5,1,14,22,10,12,1,,02-27-2015,14:51:04
12002,1,1,5,6,Recall,,0,13,9,,5,1,14,22,10,12,1,,02-27-2015,14:51:04
12002,1,1,5,7,Recall,,0,14,16,,5,1,14,22,10,12,1,,02-27-2015,14:51:04
12002,1,1,5,8,Recall,,1,15,15,,5,1,14,22,10,12,1,,02-27-2015,14:51:04
12002,1,1,5,9,Recall,,0,8,6,,5,1,14,22,10,12,1,,02-27-2015,14:51:04
12002,1,1,5,10,Recall,,0,4,1,,5,1,14,22,10,12,1,,02-27-2015,14:51:04
12002,1,2,2,1,ProcessingTask,804,1,FALSE,FALSE,13,2,2,14,22,10,12,1,,02-27-2015,14:51:04
12002,1,2,2,2,ProcessingTask,756,1,FALSE,FALSE,9,2,2,14,22,10,12,1,,02-27-2015,14:51:04
12002,1,2,2,3,Recall,,1,13,13,,2,2,14,22,10,12,1,,02-27-2015,14:51:04
12002,1,2,2,4,Recall,,1,9,9,,2,2,14,22,10,12,1,,02-27-2015,14:51:04
12002,1,3,6,1,ProcessingTask,975,1,FALSE,FALSE,6,6,0,14,22,10,12,1,,02-27-2015,14:51:04
12002,1,3,6,2,ProcessingTask,606,1,TRUE,TRUE,1,6,0,14,22,10,12,1,,02-27-2015,14:51:04
12002,1,3,6,3,ProcessingTask,550,1,FALSE,FALSE,2,6,0,14,22,10,12,1,,02-27-2015,14:51:04
12002,1,3,6,4,ProcessingTask,715,1,FALSE,FALSE,9,6,0,14,22,10,12,1,,02-27-2015,14:51:04
12002,1,3,6,5,ProcessingTask,930,1,TRUE,TRUE,12,6,0,14,22,10,12,1,,02-27-2015,14:51:04
12002,1,3,6,6,ProcessingTask,665,1,FALSE,FALSE,4,6,0,14,22,10,12,1,,02-27-2015,14:51:04
12002,1,3,6,7,Recall,,,,6,,6,0,14,22,10,12,1,,02-27-2015,14:51:04
12002,1,3,6,8,Recall,,,,1,,6,0,14,22,10,12,1,,02-27-2015,14:51:04
12002,1,3,6,9,Recall,,,,2,,6,0,14,22,10,12,1,,02-27-2015,14:51:04
12002,1,3,6,10,Recall,,,,9,,6,0,14,22,10,12,1,,02-27-2015,14:51:04
12002,1,3,6,11,Recall,,0,6,12,,6,0,14,22,10,12,1,,02-27-2015,14:51:04
12002,1,3,6,12,Recall,,,,4,,6,0,14,22,10,12,1,,02-27-2015,14:51:04
12002,1,4,7,1,ProcessingTask,784,1,TRUE,TRUE,2,7,0,14,22,10,12,1,,02-27-2015,14:51:04
12002,1,4,7,2,ProcessingTask,648,1,TRUE,TRUE,4,7,0,14,22,10,12,1,,02-27-2015,14:51:04
12002,1,4,7,3,ProcessingTask,599,1,TRUE,TRUE,16,7,0,14,22,10,12,1,,02-27-2015,14:51:04
12002,1,4,7,4,ProcessingTask,526,1,TRUE,TRUE,9,7,0,14,22,10,12,1,,02-27-2015,14:51:04
12002,1,4,7,5,ProcessingTask,488,1,TRUE,TRUE,14,7,0,14,22,10,12,1,,02-27-2015,14:51:04
12002,1,4,7,6,ProcessingTask,604,1,FALSE,FALSE,13,7,0,14,22,10,12,1,,02-27-2015,14:51:04
12002,1,4,7,7,ProcessingTask,530,1,TRUE,TRUE,1,7,0,14,22,10,12,1,,02-27-2015,14:51:04
12002,1,4,7,8,Recall,,,,2,,7,0,14,22,10,12,1,,02-27-2015,14:51:04
12002,1,4,7,9,Recall,,,,4,,7,0,14,22,10,12,1,,02-27-2015,14:51:04
12002,1,4,7,10,Recall,,,,16,,7,0,14,22,10,12,1,,02-27-2015,14:51:04
12002,1,4,7,11,Recall,,,,9,,7,0,14,22,10,12,1,,02-27-2015,14:51:04
12002,1,4,7,12,Recall,,0,1,14,,7,0,14,22,10,12,1,,02-27-2015,14:51:04
12002,1,4,7,13,Recall,,,,13,,7,0,14,22,10,12,1,,02-27-2015,14:51:04
12002,1,4,7,14,Recall,,,,1,,7,0,14,22,10,12,1,,02-27-2015,14:51:04
12002,1,5,4,1,ProcessingTask,943,1,FALSE,FALSE,9,4,4,14,22,10,12,1,,02-27-2015,14:51:04
12002,1,5,4,2,ProcessingTask,683,1,TRUE,TRUE,4,4,4,14,22,10,12,1,,02-27-2015,14:51:04
12002,1,5,4,3,ProcessingTask,588,1,FALSE,FALSE,16,4,4,14,22,10,12,1,,02-27-2015,14:51:04
12002,1,5,4,4,ProcessingTask,533,1,FALSE,FALSE,13,4,4,14,22,10,12,1,,02-27-2015,14:51:04
12002,1,5,4,5,Recall,,1,9,9,,4,4,14,22,10,12,1,,02-27-2015,14:51:04
12002,1,5,4,6,Recall,,1,4,4,,4,4,14,22,10,12,1,,02-27-2015,14:51:04
12002,1,5,4,7,Recall,,1,16,16,,4,4,14,22,10,12,1,,02-27-2015,14:51:04
12002,1,5,4,8,Recall,,1,13,13,,4,4,14,22,10,12,1,,02-27-2015,14:51:04
12002,1,6,3,1,ProcessingTask,1107,1,FALSE,FALSE,2,3,3,14,22,10,12,1,,02-27-2015,14:51:04
12002,1,6,3,2,ProcessingTask,457,1,TRUE,TRUE,4,3,3,14,22,10,12,1,,02-27-2015,14:51:04
12002,1,6,3,3,ProcessingTask,524,1,TRUE,TRUE,11,3,3,14,22,10,12,1,,02-27-2015,14:51:04
12002,1,6,3,4,Recall,,1,2,2,,3,3,14,22,10,12,1,,02-27-2015,14:51:04
12002,1,6,3,5,Recall,,1,4,4,,3,3,14,22,10,12,1,,02-27-2015,14:51:04
12002,1,6,3,6,Recall,,1,11,11,,3,3,14,22,10,12,1,,02-27-2015,14:51:04
12002,2,1,7,1,ProcessingTask,519,1,TRUE,TRUE,8,7,2,14,22,10,12,1,,02-27-2015,14:51:04
12002,2,1,7,2,ProcessingTask,730,1,FALSE,FALSE,5,7,2,14,22,10,12,1,,02-27-2015,14:51:04
12002,2,1,7,3,ProcessingTask,661,1,FALSE,FALSE,12,7,2,14,22,10,12,1,,02-27-2015,14:51:04
12002,2,1,7,4,ProcessingTask,508,1,TRUE,TRUE,3,7,2,14,22,10,12,1,,02-27-2015,14:51:04
12002,2,1,7,5,ProcessingTask,1053,1,FALSE,FALSE,1,7,2,14,22,10,12,1,,02-27-2015,14:51:04
12002,2,1,7,6,ProcessingTask,543,1,FALSE,FALSE,2,7,2,14,22,10,12,1,,02-27-2015,14:51:04
12002,2,1,7,7,ProcessingTask,491,1,FALSE,FALSE,6,7,2,14,22,10,12,1,,02-27-2015,14:51:04
12002,2,1,7,8,Recall,,1,8,8,,7,2,14,22,10,12,1,,02-27-2015,14:51:04
12002,2,1,7,9,Recall,,1,5,5,,7,2,14,22,10,12,1,,02-27-2015,14:51:04
12002,2,1,7,10,Recall,,,,12,,7,2,14,22,10,12,1,,02-27-2015,14:51:04
12002,2,1,7,11,Recall,,,,3,,7,2,14,22,10,12,1,,02-27-2015,14:51:04
12002,2,1,7,12,Recall,,0,4,1,,7,2,14,22,10,12,1,,02-27-2015,14:51:04
12002,2,1,7,13,Recall,,,,2,,7,2,14,22,10,12,1,,02-27-2015,14:51:04
12002,2,1,7,14,Recall,,,,6,,7,2,14,22,10,12,1,,02-27-2015,14:51:04
12002,2,2,5,1,ProcessingTask,872,1,FALSE,FALSE,1,5,2,14,22,10,12,1,,02-27-2015,14:51:04
12002,2,2,5,2,ProcessingTask,479,1,TRUE,TRUE,12,5,2,14,22,10,12,1,,02-27-2015,14:51:04
12002,2,2,5,3,ProcessingTask,761,1,TRUE,TRUE,4,5,2,14,22,10,12,1,,02-27-2015,14:51:04
12002,2,2,5,4,ProcessingTask,553,1,TRUE,TRUE,7,5,2,14,22,10,12,1,,02-27-2015,14:51:04
12002,2,2,5,5,ProcessingTask,572,1,TRUE,TRUE,9,5,2,14,22,10,12,1,,02-27-2015,14:51:04
12002,2,2,5,6,Recall,,1,1,1,,5,2,14,22,10,12,1,,02-27-2015,14:51:04
12002,2,2,5,7,Recall,,0,4,12,,5,2,14,22,10,12,1,,02-27-2015,14:51:04
12002,2,2,5,8,Recall,,0,12,4,,5,2,14,22,10,12,1,,02-27-2015,14:51:04
12002,2,2,5,9,Recall,,0,8,7,,5,2,14,22,10,12,1,,02-27-2015,14:51:04
12002,2,2,5,10,Recall,,1,9,9,,5,2,14,22,10,12,1,,02-27-2015,14:51:04
12002,2,3,2,1,ProcessingTask,652,1,FALSE,FALSE,16,2,2,14,22,10,12,1,,02-27-2015,14:51:04
12002,2,3,2,2,ProcessingTask,510,1,TRUE,TRUE,11,2,2,14,22,10,12,1,,02-27-2015,14:51:04
12002,2,3,2,3,Recall,,1,16,16,,2,2,14,22,10,12,1,,02-27-2015,14:51:04
12002,2,3,2,4,Recall,,1,11,11,,2,2,14,22,10,12,1,,02-27-2015,14:51:04
12002,2,4,6,1,ProcessingTask,484,1,TRUE,TRUE,10,6,0,14,22,10,12,1,,02-27-2015,14:51:04
12002,2,4,6,2,ProcessingTask,607,1,TRUE,TRUE,5,6,0,14,22,10,12,1,,02-27-2015,14:51:04
12002,2,4,6,3,ProcessingTask,567,1,TRUE,TRUE,9,6,0,14,22,10,12,1,,02-27-2015,14:51:04
12002,2,4,6,4,ProcessingTask,545,1,FALSE,FALSE,7,6,0,14,22,10,12,1,,02-27-2015,14:51:04
12002,2,4,6,5,ProcessingTask,543,1,FALSE,FALSE,1,6,0,14,22,10,12,1,,02-27-2015,14:51:04
12002,2,4,6,6,ProcessingTask,1092,1,FALSE,FALSE,8,6,0,14,22,10,12,1,,02-27-2015,14:51:04
12002,2,4,6,7,Recall,,,,10,,6,0,14,22,10,12,1,,02-27-2015,14:51:04
12002,2,4,6,8,Recall,,,,5,,6,0,14,22,10,12,1,,02-27-2015,14:51:04
12002,2,4,6,9,Recall,,,,9,,6,0,14,22,10,12,1,,02-27-2015,14:51:04
12002,2,4,6,10,Recall,,,,7,,6,0,14,22,10,12,1,,02-27-2015,14:51:04
12002,2,4,6,11,Recall,,0,8,1,,6,0,14,22,10,12,1,,02-27-2015,14:51:04
12002,2,4,6,12,Recall,,,,8,,6,0,14,22,10,12,1,,02-27-2015,14:51:04
12002,2,5,3,1,ProcessingTask,795,1,TRUE,TRUE,7,3,3,14,22,10,12,1,,02-27-2015,14:51:04
12002,2,5,3,2,ProcessingTask,665,1,FALSE,FALSE,15,3,3,14,22,10,12,1,,02-27-2015,14:51:04
12002,2,5,3,3,ProcessingTask,1338,1,FALSE,FALSE,2,3,3,14,22,10,12,1,,02-27-2015,14:51:04
12002,2,5,3,4,Recall,,1,7,7,,3,3,14,22,10,12,1,,02-27-2015,14:51:04
12002,2,5,3,5,Recall,,1,15,15,,3,3,14,22,10,12,1,,02-27-2015,14:51:04
12002,2,5,3,6,Recall,,1,2,2,,3,3,14,22,10,12,1,,02-27-2015,14:51:04
12002,2,6,4,1,ProcessingTask,807,1,TRUE,TRUE,7,4,3,14,22,10,12,1,,02-27-2015,14:51:04
12002,2,6,4,2,ProcessingTask,545,1,TRUE,TRUE,3,4,3,14,22,10,12,1,,02-27-2015,14:51:04
12002,2,6,4,3,ProcessingTask,522,1,FALSE,FALSE,11,4,3,14,22,10,12,1,,02-27-2015,14:51:04
12002,2,6,4,4,ProcessingTask,448,1,FALSE,FALSE,5,4,3,14,22,10,12,1,,02-27-2015,14:51:04
12002,2,6,4,5,Recall,,1,7,7,,4,3,14,22,10,12,1,,02-27-2015,14:51:04
12002,2,6,4,6,Recall,,0,6,3,,4,3,14,22,10,12,1,,02-27-2015,14:51:04
12002,2,6,4,7,Recall,,1,11,11,,4,3,14,22,10,12,1,,02-27-2015,14:51:04
12002,2,6,4,8,Recall,,1,5,5,,4,3,14,22,10,12,1,,02-27-2015,14:51:04
12006,1,1,4,1,ProcessingTask,491,1,TRUE,TRUE,4,4,3,24,30,13,17,0.9496402877697842,,02-27-2015,09:10:17
12006,1,1,4,2,ProcessingTask,685,1,FALSE,FALSE,10,4,3,24,30,13,17,0.9496402877697842,,02-27-2015,09:10:17
12006,1,1,4,3,ProcessingTask,536,1,FALSE,FALSE,16,4,3,24,30,13,17,0.9496402877697842,,02-27-2015,09:10:17
12006,1,1,4,4,ProcessingTask,504,1,TRUE,TRUE,13,4,3,24,30,13,17,0.9496402877697842,,02-27-2015,09:10:17
12006,1,1,4,5,Recall,,1,4,4,,4,3,24,30,13,17,0.9496402877697842,,02-27-2015,09:10:17
12006,1,1,4,6,Recall,,1,10,10,,4,3,24,30,13,17,0.9496402877697842,,02-27-2015,09:10:17
12006,1,1,4,7,Recall,,0,8,16,,4,3,24,30,13,17,0.9496402877697842,,02-27-2015,09:10:17
12006,1,1,4,8,Recall,,1,13,13,,4,3,24,30,13,17,0.9496402877697842,,02-27-2015,09:10:17
12006,1,2,3,1,ProcessingTask,898,1,FALSE,FALSE,13,3,3,24,30,13,17,0.9496402877697842,,02-27-2015,09:10:17
12006,1,2,3,2,ProcessingTask,1095,1,FALSE,FALSE,2,3,3,24,30,13,17,0.9496402877697842,,02-27-2015,09:10:17
12006,1,2,3,3,ProcessingTask,712,1,FALSE,FALSE,7,3,3,24,30,13,17,0.9496402877697842,,02-27-2015,09:10:17
12006,1,2,3,4,Recall,,1,13,13,,3,3,24,30,13,17,0.9496402877697842,,02-27-2015,09:10:17
12006,1,2,3,5,Recall,,1,2,2,,3,3,24,30,13,17,0.9496402877697842,,02-27-2015,09:10:17
12006,1,2,3,6,Recall,,1,7,7,,3,3,24,30,13,17,0.9496402877697842,,02-27-2015,09:10:17
12006,1,3,5,1,ProcessingTask,972,1,TRUE,TRUE,13,5,2,24,30,13,17,0.9496402877697842,,02-27-2015,09:10:17
12006,1,3,5,2,ProcessingTask,630,1,TRUE,TRUE,10,5,2,24,30,13,17,0.9496402877697842,,02-27-2015,09:10:17
12006,1,3,5,3,ProcessingTask,527,1,FALSE,FALSE,4,5,2,24,30,13,17,0.9496402877697842,,02-27-2015,09:10:17
12006,1,3,5,4,ProcessingTask,783,1,FALSE,FALSE,11,5,2,24,30,13,17,0.9496402877697842,,02-27-2015,09:10:17
12006,1,3,5,5,ProcessingTask,1504,1,TRUE,TRUE,12,5,2,24,30,13,17,0.9496402877697842,,02-27-2015,09:10:17
12006,1,3,5,6,Recall,,1,13,13,,5,2,24,30,13,17,0.9496402877697842,,02-27-2015,09:10:17
12006,1,3,5,7,Recall,,0,2,10,,5,2,24,30,13,17,0.9496402877697842,,02-27-2015,09:10:17
12006,1,3,5,8,Recall,,0,12,4,,5,2,24,30,13,17,0.9496402877697842,,02-27-2015,09:10:17
12006,1,3,5,9,Recall,,1,11,11,,5,2,24,30,13,17,0.9496402877697842,,02-27-2015,09:10:17
12006,1,3,5,10,Recall,,0,7,12,,5,2,24,30,13,17,0.9496402877697842,,02-27-2015,09:10:17
12006,1,4,6,1,ProcessingTask,1079,1,TRUE,TRUE,4,6,2,24,30,13,17,0.9496402877697842,,02-27-2015,09:10:17
12006,1,4,6,2,ProcessingTask,874,1,TRUE,TRUE,6,6,2,24,30,13,17,0.9496402877697842,,02-27-2015,09:10:17
12006,1,4,6,3,ProcessingTask,3071,1,FALSE,FALSE,14,6,2,24,30,13,17,0.9496402877697842,,02-27-2015,09:10:17
12006,1,4,6,4,ProcessingTask,1452,1,TRUE,TRUE,8,6,2,24,30,13,17,0.9496402877697842,,02-27-2015,09:10:17
12006,1,4,6,5,ProcessingTask,556,1,TRUE,TRUE,16,6,2,24,30,13,17,0.9496402877697842,,02-27-2015,09:10:17
12006,1,4,6,6,ProcessingTask,556,1,TRUE,TRUE,13,6,2,24,30,13,17,0.9496402877697842,,02-27-2015,09:10:17
12006,1,4,6,7,Recall,,1,4,4,,6,2,24,30,13,17,0.9496402877697842,,02-27-2015,09:10:17
12006,1,4,6,8,Recall,,1,6,6,,6,2,24,30,13,17,0.9496402877697842,,02-27-2015,09:10:17
12006,1,4,6,9,Recall,,0,15,14,,6,2,24,30,13,17,0.9496402877697842,,02-27-2015,09:10:17
12006,1,4,6,10,Recall,,,,8,,6,2,24,30,13,17,0.9496402877697842,,02-27-2015,09:10:17
12006,1,4,6,11,Recall,,0,13,16,,6,2,24,30,13,17,0.9496402877697842,,02-27-2015,09:10:17
12006,1,4,6,12,Recall,,,,13,,6,2,24,30,13,17,0.9496402877697842,,02-27-2015,09:10:17
12006,1,5,7,1,ProcessingTask,556,1,FALSE,FALSE,7,7,1,24,30,13,17,0.9496402877697842,,02-27-2015,09:10:17
12006,1,5,7,2,ProcessingTask,2351,1,TRUE,TRUE,10,7,1,24,30,13,17,0.9496402877697842,,02-27-2015,09:10:17
12006,1,5,7,3,ProcessingTask,439,1,TRUE,TRUE,14,7,1,24,30,13,17,0.9496402877697842,,02-27-2015,09:10:17
12006,1,5,7,4,ProcessingTask,441,1,TRUE,TRUE,16,7,1,24,30,13,17,0.9496402877697842,,02-27-2015,09:10:17
12006,1,5,7,5,ProcessingTask,460,1,TRUE,TRUE,2,7,1,24,30,13,17,0.9496402877697842,,02-27-2015,09:10:17
12006,1,5,7,6,ProcessingTask,490,1,TRUE,TRUE,11,7,1,24,30,13,17,0.9496402877697842,,02-27-2015,09:10:17
12006,1,5,7,7,ProcessingTask,711,1,FALSE,FALSE,5,7,1,24,30,13,17,0.9496402877697842,,02-27-2015,09:10:17
12006,1,5,7,8,Recall,,1,7,7,,7,1,24,30,13,17,0.9496402877697842,,02-27-2015,09:10:17
12006,1,5,7,9,Recall,,0,2,10,,7,1,24,30,13,17,0.9496402877697842,,02-27-2015,09:10:17
12006,1,5,7,10,Recall,,,,14,,7,1,24,30,13,17,0.9496402877697842,,02-27-2015,09:10:17
12006,1,5,7,11,Recall,,0,6,16,,7,1,24,30,13,17,0.9496402877697842,,02-27-2015,09:10:17
12006,1,5,7,12,Recall,,0,11,2,,7,1,24,30,13,17,0.9496402877697842,,02-27-2015,09:10:17
12006,1,5,7,13,Recall,,0,5,11,,7,1,24,30,13,17,0.9496402877697842,,02-27-2015,09:10:17
12006,1,5,7,14,Recall,,,,5,,7,1,24,30,13,17,0.9496402877697842,,02-27-2015,09:10:17
12006,1,6,2,1,ProcessingTask,722,1,TRUE,TRUE,6,2,2,24,30,13,17,0.9496402877697842,,02-27-2015,09:10:17
12006,1,6,2,2,ProcessingTask,527,1,TRUE,TRUE,12,2,2,24,30,13,17,0.9496402877697842,,02-27-2015,09:10:17
12006,1,6,2,3,Recall,,1,6,6,,2,2,24,30,13,17,0.9496402877697842,,02-27-2015,09:10:17
12006,1,6,2,4,Recall,,1,12,12,,2,2,24,30,13,17,0.9496402877697842,,02-27-2015,09:10:17
12006,2,1,2,1,ProcessingTask,600,1,TRUE,TRUE,1,2,2,24,30,13,17,0.9496402877697842,,02-27-2015,09:10:17
12006,2,1,2,2,ProcessingTask,982,1,FALSE,FALSE,3,2,2,24,30,13,17,0.9496402877697842,,02-27-2015,09:10:17
12006,2,1,2,3,Recall,,1,1,1,,2,2,24,30,13,17,0.9496402877697842,,02-27-2015,09:10:17
12006,2,1,2,4,Recall,,1,3,3,,2,2,24,30,13,17,0.9496402877697842,,02-27-2015,09:10:17
12006,2,2,7,1,ProcessingTask,578,1,TRUE,TRUE,12,5,3,24,30,13,17,0.9496402877697842,,02-27-2015,09:10:17
12006,2,2,7,2,ProcessingTask,989,1,FALSE,FALSE,10,5,3,24,30,13,17,0.9496402877697842,,02-27-2015,09:10:17
12006,2,2,7,3,ProcessingTask,1125,0,TRUE,FALSE,2,5,3,24,30,13,17,0.9496402877697842,,02-27-2015,09:10:17
12006,2,2,7,4,ProcessingTask,538,1,TRUE,TRUE,8,5,3,24,30,13,17,0.9496402877697842,,02-27-2015,09:10:17
12006,2,2,7,5,ProcessingTask,697,1,FALSE,FALSE,5,5,3,24,30,13,17,0.9496402877697842,,02-27-2015,09:10:17
12006,2,2,7,6,ProcessingTask,447,0,TRUE,FALSE,16,5,3,24,30,13,17,0.9496402877697842,,02-27-2015,09:10:17
12006,2,2,7,7,ProcessingTask,836,1,FALSE,FALSE,14,5,3,24,30,13,17,0.9496402877697842,,02-27-2015,09:10:17
12006,2,2,7,8,Recall,,1,12,12,,5,3,24,30,13,17,0.9496402877697842,,02-27-2015,09:10:17
12006,2,2,7,9,Recall,,1,10,10,,5,3,24,30,13,17,0.9496402877697842,,02-27-2015,09:10:17
12006,2,2,7,10,Recall,,0,3,2,,5,3,24,30,13,17,0.9496402877697842,,02-27-2015,09:10:17
12006,2,2,7,11,Recall,,,,8,,5,3,24,30,13,17,0.9496402877697842,,02-27-2015,09:10:17
12006,2,2,7,12,Recall,,,,5,,5,3,24,30,13,17,0.9496402877697842,,02-27-2015,09:10:17
12006,2,2,7,13,Recall,,1,16,16,,5,3,24,30,13,17,0.9496402877697842,,02-27-2015,09:10:17
12006,2,2,7,14,Recall,,,,14,,5,3,24,30,13,17,0.9496402877697842,,02-27-2015,09:10:17
12006,2,3,4,1,ProcessingTask,559,1,TRUE,TRUE,14,4,2,24,30,13,17,0.9496402877697842,,02-27-2015,09:10:17
12006,2,3,4,2,ProcessingTask,518,1,TRUE,TRUE,16,4,2,24,30,13,17,0.9496402877697842,,02-27-2015,09:10:17
12006,2,3,4,3,ProcessingTask,799,1,FALSE,FALSE,10,4,2,24,30,13,17,0.9496402877697842,,02-27-2015,09:10:17
12006,2,3,4,4,ProcessingTask,551,1,TRUE,TRUE,6,4,2,24,30,13,17,0.9496402877697842,,02-27-2015,09:10:17
12006,2,3,4,5,Recall,,1,14,14,,4,2,24,30,13,17,0.9496402877697842,,02-27-2015,09:10:17
12006,2,3,4,6,Recall,,0,10,16,,4,2,24,30,13,17,0.9496402877697842,,02-27-2015,09:10:17
12006,2,3,4,7,Recall,,0,16,10,,4,2,24,30,13,17,0.9496402877697842,,02-27-2015,09:10:17
12006,2,3,4,8,Recall,,1,6,6,,4,2,24,30,13,17,0.9496402877697842,,02-27-2015,09:10:17
12006,2,4,3,1,ProcessingTask,892,1,FALSE,FALSE,10,3,3,24,30,13,17,0.9496402877697842,,02-27-2015,09:10:17
12006,2,4,3,2,ProcessingTask,721,1,FALSE,FALSE,12,3,3,24,30,13,17,0.9496402877697842,,02-27-2015,09:10:17
12006,2,4,3,3,ProcessingTask,647,1,FALSE,FALSE,11,3,3,24,30,13,17,0.9496402877697842,,02-27-2015,09:10:17
12006,2,4,3,4,Recall,,1,10,10,,3,3,24,30,13,17,0.9496402877697842,,02-27-2015,09:10:17
12006,2,4,3,5,Recall,,1,12,12,,3,3,24,30,13,17,0.9496402877697842,,02-27-2015,09:10:17
12006,2,4,3,6,Recall,,1,11,11,,3,3,24,30,13,17,0.9496402877697842,,02-27-2015,09:10:17
12006,2,5,5,1,ProcessingTask,653,1,FALSE,FALSE,15,5,5,24,30,13,17,0.9496402877697842,,02-27-2015,09:10:17
12006,2,5,5,2,ProcessingTask,594,1,FALSE,FALSE,2,5,5,24,30,13,17,0.9496402877697842,,02-27-2015,09:10:17
12006,2,5,5,3,ProcessingTask,692,1,FALSE,FALSE,16,5,5,24,30,13,17,0.9496402877697842,,02-27-2015,09:10:17
12006,2,5,5,4,ProcessingTask,573,1,TRUE,TRUE,1,5,5,24,30,13,17,0.9496402877697842,,02-27-2015,09:10:17
12006,2,5,5,5,ProcessingTask,677,1,FALSE,FALSE,8,5,5,24,30,13,17,0.9496402877697842,,02-27-2015,09:10:17
12006,2,5,5,6,Recall,,1,15,15,,5,5,24,30,13,17,0.9496402877697842,,02-27-2015,09:10:17
12006,2,5,5,7,Recall,,1,2,2,,5,5,24,30,13,17,0.9496402877697842,,02-27-2015,09:10:17
12006,2,5,5,8,Recall,,1,16,16,,5,5,24,30,13,17,0.9496402877697842,,02-27-2015,09:10:17
12006,2,5,5,9,Recall,,1,1,1,,5,5,24,30,13,17,0.9496402877697842,,02-27-2015,09:10:17
12006,2,5,5,10,Recall,,1,8,8,,5,5,24,30,13,17,0.9496402877697842,,02-27-2015,09:10:17
12006,2,6,6,1,ProcessingTask,820,1,FALSE,FALSE,9,6,2,24,30,13,17,0.9496402877697842,,02-27-2015,09:10:17
12006,2,6,6,2,ProcessingTask,652,1,FALSE,FALSE,13,6,2,24,30,13,17,0.9496402877697842,,02-27-2015,09:10:17
12006,2,6,6,3,ProcessingTask,580,1,TRUE,TRUE,5,6,2,24,30,13,17,0.9496402877697842,,02-27-2015,09:10:17
12006,2,6,6,4,ProcessingTask,582,1,TRUE,TRUE,10,6,2,24,30,13,17,0.9496402877697842,,02-27-2015,09:10:17
12006,2,6,6,5,ProcessingTask,762,1,TRUE,TRUE,2,6,2,24,30,13,17,0.9496402877697842,,02-27-2015,09:10:17
12006,2,6,6,6,ProcessingTask,522,1,TRUE,TRUE,11,6,2,24,30,13,17,0.9496402877697842,,02-27-2015,09:10:17
12006,2,6,6,7,Recall,,0,12,9,,6,2,24,30,13,17,0.9496402877697842,,02-27-2015,09:10:17
12006,2,6,6,8,Recall,,0,1,13,,6,2,24,30,13,17,0.9496402877697842,,02-27-2015,09:10:17
12006,2,6,6,9,Recall,,0,13,5,,6,2,24,30,13,17,0.9496402877697842,,02-27-2015,09:10:17
12006,2,6,6,10,Recall,,0,8,10,,6,2,24,30,13,17,0.9496402877697842,,02-27-2015,09:10:17
12006,2,6,6,11,Recall,,1,2,2,,6,2,24,30,13,17,0.9496402877697842,,02-27-2015,09:10:17
12006,2,6,6,12,Recall,,1,11,11,,6,2,24,30,13,17,0.9496402877697842,,02-27-2015,09:10:17
12008,1,1,7,1,ProcessingTask,1047,1,TRUE,TRUE,16,7,4,5,21,15,6,0.9856115107913669,,04-03-2015,12:03:17
12008,1,1,7,2,ProcessingTask,464,1,TRUE,TRUE,10,7,4,5,21,15,6,0.9856115107913669,,04-03-2015,12:03:17
12008,1,1,7,3,ProcessingTask,1081,1,FALSE,FALSE,11,7,4,5,21,15,6,0.9856115107913669,,04-03-2015,12:03:17
12008,1,1,7,4,ProcessingTask,746,1,TRUE,TRUE,14,7,4,5,21,15,6,0.9856115107913669,,04-03-2015,12:03:17
12008,1,1,7,5,ProcessingTask,574,1,FALSE,FALSE,4,7,4,5,21,15,6,0.9856115107913669,,04-03-2015,12:03:17
12008,1,1,7,6,ProcessingTask,522,1,TRUE,TRUE,1,7,4,5,21,15,6,0.9856115107913669,,04-03-2015,12:03:17
12008,1,1,7,7,ProcessingTask,528,1,FALSE,FALSE,13,7,4,5,21,15,6,0.9856115107913669,,04-03-2015,12:03:17
12008,1,1,7,8,Recall,,1,16,16,,7,4,5,21,15,6,0.9856115107913669,,04-03-2015,12:03:17
12008,1,1,7,9,Recall,,1,10,10,,7,4,5,21,15,6,0.9856115107913669,,04-03-2015,12:03:17
12008,1,1,7,10,Recall,,1,11,11,,7,4,5,21,15,6,0.9856115107913669,,04-03-2015,12:03:17
12008,1,1,7,11,Recall,,1,14,14,,7,4,5,21,15,6,0.9856115107913669,,04-03-2015,12:03:17
12008,1,1,7,12,Recall,,0,1,4,,7,4,5,21,15,6,0.9856115107913669,,04-03-2015,12:03:17
12008,1,1,7,13,Recall,,0,5,1,,7,4,5,21,15,6,0.9856115107913669,,04-03-2015,12:03:17
12008,1,1,7,14,Recall,,,,13,,7,4,5,21,15,6,0.9856115107913669,,04-03-2015,12:03:17
12008,1,2,2,1,ProcessingTask,560,1,TRUE,TRUE,13,2,2,5,21,15,6,0.9856115107913669,,04-03-2015,12:03:17
12008,1,2,2,2,ProcessingTask,520,1,TRUE,TRUE,14,2,2,5,21,15,6,0.9856115107913669,,04-03-2015,12:03:17
12008,1,2,2,3,Recall,,1,13,13,,2,2,5,21,15,6,0.9856115107913669,,04-03-2015,12:03:17
12008,1,2,2,4,Recall,,1,14,14,,2,2,5,21,15,6,0.9856115107913669,,04-03-2015,12:03:17
12008,1,3,5,1,ProcessingTask,779,1,TRUE,TRUE,2,5,3,5,21,15,6,0.9856115107913669,,04-03-2015,12:03:17
12008,1,3,5,2,ProcessingTask,563,1,TRUE,TRUE,3,5,3,5,21,15,6,0.9856115107913669,,04-03-2015,12:03:17
12008,1,3,5,3,ProcessingTask,592,1,TRUE,TRUE,4,5,3,5,21,15,6,0.9856115107913669,,04-03-2015,12:03:17
12008,1,3,5,4,ProcessingTask,567,1,FALSE,FALSE,13,5,3,5,21,15,6,0.9856115107913669,,04-03-2015,12:03:17
12008,1,3,5,5,ProcessingTask,875,1,TRUE,TRUE,1,5,3,5,21,15,6,0.9856115107913669,,04-03-2015,12:03:17
12008,1,3,5,6,Recall,,1,2,2,,5,3,5,21,15,6,0.9856115107913669,,04-03-2015,12:03:17
12008,1,3,5,7,Recall,,0,5,3,,5,3,5,21,15,6,0.9856115107913669,,04-03-2015,12:03:17
12008,1,3,5,8,Recall,,1,4,4,,5,3,5,21,15,6,0.9856115107913669,,04-03-2015,12:03:17
12008,1,3,5,9,Recall,,1,13,13,,5,3,5,21,15,6,0.9856115107913669,,04-03-2015,12:03:17
12008,1,3,5,10,Recall,,0,6,1,,5,3,5,21,15,6,0.9856115107913669,,04-03-2015,12:03:17
12008,1,4,6,1,ProcessingTask,507,1,TRUE,TRUE,1,6,3,5,21,15,6,0.9856115107913669,,04-03-2015,12:03:17
12008,1,4,6,2,ProcessingTask,1027,1,FALSE,FALSE,8,6,3,5,21,15,6,0.9856115107913669,,04-03-2015,12:03:17
12008,1,4,6,3,ProcessingTask,464,1,TRUE,TRUE,6,6,3,5,21,15,6,0.9856115107913669,,04-03-2015,12:03:17
12008,1,4,6,4,ProcessingTask,456,1,TRUE,TRUE,11,6,3,5,21,15,6,0.9856115107913669,,04-03-2015,12:03:17
12008,1,4,6,5,ProcessingTask,1401,1,FALSE,FALSE,3,6,3,5,21,15,6,0.9856115107913669,,04-03-2015,12:03:17
12008,1,4,6,6,ProcessingTask,517,1,TRUE,TRUE,15,6,3,5,21,15,6,0.9856115107913669,,04-03-2015,12:03:17
12008,1,4,6,7,Recall,,1,1,1,,6,3,5,21,15,6,0.9856115107913669,,04-03-2015,12:03:17
12008,1,4,6,8,Recall,,1,8,8,,6,3,5,21,15,6,0.9856115107913669,,04-03-2015,12:03:17
12008,1,4,6,9,Recall,,1,6,6,,6,3,5,21,15,6,0.9856115107913669,,04-03-2015,12:03:17
12008,1,4,6,10,Recall,,0,3,11,,6,3,5,21,15,6,0.9856115107913669,,04-03-2015,12:03:17
12008,1,4,6,11,Recall,,0,14,3,,6,3,5,21,15,6,0.9856115107913669,,04-03-2015,12:03:17
12008,1,4,6,12,Recall,,0,11,15,,6,3,5,21,15,6,0.9856115107913669,,04-03-2015,12:03:17
12008,1,5,4,1,ProcessingTask,1209,1,FALSE,FALSE,11,3,1,5,21,15,6,0.9856115107913669,,04-03-2015,12:03:17
12008,1,5,4,2,ProcessingTask,1037,1,FALSE,FALSE,6,3,1,5,21,15,6,0.9856115107913669,,04-03-2015,12:03:17
12008,1,5,4,3,ProcessingTask,2012,1,FALSE,FALSE,13,3,1,5,21,15,6,0.9856115107913669,,04-03-2015,12:03:17
12008,1,5,4,4,ProcessingTask,1877,0,TRUE,FALSE,12,3,1,5,21,15,6,0.9856115107913669,,04-03-2015,12:03:17
12008,1,5,4,5,Recall,,0,2,11,,3,1,5,21,15,6,0.9856115107913669,,04-03-2015,12:03:17
12008,1,5,4,6,Recall,,1,6,6,,3,1,5,21,15,6,0.9856115107913669,,04-03-2015,12:03:17
12008,1,5,4,7,Recall,,0,5,13,,3,1,5,21,15,6,0.9856115107913669,,04-03-2015,12:03:17
12008,1,5,4,8,Recall,,0,4,12,,3,1,5,21,15,6,0.9856115107913669,,04-03-2015,12:03:17
12008,1,6,3,1,ProcessingTask,435,1,TRUE,TRUE,9,3,2,5,21,15,6,0.9856115107913669,,04-03-2015,12:03:17
12008,1,6,3,2,ProcessingTask,1203,1,TRUE,TRUE,5,3,2,5,21,15,6,0.9856115107913669,,04-03-2015,12:03:17
12008,1,6,3,3,ProcessingTask,1608,1,FALSE,FALSE,7,3,2,5,21,15,6,0.9856115107913669,,04-03-2015,12:03:17
12008,1,6,3,4,Recall,,0,1,9,,3,2,5,21,15,6,0.9856115107913669,,04-03-2015,12:03:17
12008,1,6,3,5,Recall,,1,5,5,,3,2,5,21,15,6,0.9856115107913669,,04-03-2015,12:03:17
12008,1,6,3,6,Recall,,1,7,7,,3,2,5,21,15,6,0.9856115107913669,,04-03-2015,12:03:17
12008,2,1,4,1,ProcessingTask,665,1,TRUE,TRUE,13,4,2,5,21,15,6,0.9856115107913669,,04-03-2015,12:03:17
12008,2,1,4,2,ProcessingTask,687,1,TRUE,TRUE,4,4,2,5,21,15,6,0.9856115107913669,,04-03-2015,12:03:17
12008,2,1,4,3,ProcessingTask,720,1,FALSE,FALSE,5,4,2,5,21,15,6,0.9856115107913669,,04-03-2015,12:03:17
12008,2,1,4,4,ProcessingTask,591,1,FALSE,FALSE,1,4,2,5,21,15,6,0.9856115107913669,,04-03-2015,12:03:17
12008,2,1,4,5,Recall,,0,5,13,,4,2,5,21,15,6,0.9856115107913669,,04-03-2015,12:03:17
12008,2,1,4,6,Recall,,1,4,4,,4,2,5,21,15,6,0.9856115107913669,,04-03-2015,12:03:17
12008,2,1,4,7,Recall,,0,13,5,,4,2,5,21,15,6,0.9856115107913669,,04-03-2015,12:03:17
12008,2,1,4,8,Recall,,1,1,1,,4,2,5,21,15,6,0.9856115107913669,,04-03-2015,12:03:17
12008,2,2,6,1,ProcessingTask,1664,1,FALSE,FALSE,6,6,0,5,21,15,6,0.9856115107913669,,04-03-2015,12:03:17
12008,2,2,6,2,ProcessingTask,563,1,TRUE,TRUE,2,6,0,5,21,15,6,0.9856115107913669,,04-03-2015,12:03:17
12008,2,2,6,3,ProcessingTask,516,1,FALSE,FALSE,16,6,0,5,21,15,6,0.9856115107913669,,04-03-2015,12:03:17
12008,2,2,6,4,ProcessingTask,1163,1,FALSE,FALSE,1,6,0,5,21,15,6,0.9856115107913669,,04-03-2015,12:03:17
12008,2,2,6,5,ProcessingTask,2067,1,FALSE,FALSE,5,6,0,5,21,15,6,0.9856115107913669,,04-03-2015,12:03:17
12008,2,2,6,6,ProcessingTask,375,1,FALSE,FALSE,11,6,0,5,21,15,6,0.9856115107913669,,04-03-2015,12:03:17
12008,2,2,6,7,Recall,,0,2,6,,6,0,5,21,15,6,0.9856115107913669,,04-03-2015,12:03:17
12008,2,2,6,8,Recall,,0,1,2,,6,0,5,21,15,6,0.9856115107913669,,04-03-2015,12:03:17
12008,2,2,6,9,Recall,,0,8,16,,6,0,5,21,15,6,0.9856115107913669,,04-03-2015,12:03:17
12008,2,2,6,10,Recall,,0,9,1,,6,0,5,21,15,6,0.9856115107913669,,04-03-2015,12:03:17
12008,2,2,6,11,Recall,,0,13,5,,6,0,5,21,15,6,0.9856115107913669,,04-03-2015,12:03:17
12008,2,2,6,12,Recall,,,,11,,6,0,5,21,15,6,0.9856115107913669,,04-03-2015,12:03:17
12008,2,3,7,1,ProcessingTask,654,1,FALSE,FALSE,13,7,0,5,21,15,6,0.9856115107913669,,04-03-2015,12:03:17
12008,2,3,7,2,ProcessingTask,527,1,FALSE,FALSE,9,7,0,5,21,15,6,0.9856115107913669,,04-03-2015,12:03:17
12008,2,3,7,3,ProcessingTask,601,1,TRUE,TRUE,8,7,0,5,21,15,6,0.9856115107913669,,04-03-2015,12:03:17
12008,2,3,7,4,ProcessingTask,642,1,FALSE,FALSE,10,7,0,5,21,15,6,0.9856115107913669,,04-03-2015,12:03:17
12008,2,3,7,5,ProcessingTask,1505,1,TRUE,TRUE,1,7,0,5,21,15,6,0.9856115107913669,,04-03-2015,12:03:17
12008,2,3,7,6,ProcessingTask,1269,1,TRUE,TRUE,5,7,0,5,21,15,6,0.9856115107913669,,04-03-2015,12:03:17
12008,2,3,7,7,ProcessingTask,475,1,FALSE,FALSE,4,7,0,5,21,15,6,0.9856115107913669,,04-03-2015,12:03:17
12008,2,3,7,8,Recall,,0,2,13,,7,0,5,21,15,6,0.9856115107913669,,04-03-2015,12:03:17
12008,2,3,7,9,Recall,,0,1,9,,7,0,5,21,15,6,0.9856115107913669,,04-03-2015,12:03:17
12008,2,3,7,10,Recall,,0,5,8,,7,0,5,21,15,6,0.9856115107913669,,04-03-2015,12:03:17
12008,2,3,7,11,Recall,,0,9,10,,7,0,5,21,15,6,0.9856115107913669,,04-03-2015,12:03:17
12008,2,3,7,12,Recall,,0,16,1,,7,0,5,21,15,6,0.9856115107913669,,04-03-2015,12:03:17
12008,2,3,7,13,Recall,,,,5,,7,0,5,21,15,6,0.9856115107913669,,04-03-2015,12:03:17
12008,2,3,7,14,Recall,,,,4,,7,0,5,21,15,6,0.9856115107913669,,04-03-2015,12:03:17
12008,2,4,2,1,ProcessingTask,514,1,TRUE,TRUE,13,2,0,5,21,15,6,0.9856115107913669,,04-03-2015,12:03:17
12008,2,4,2,2,ProcessingTask,540,1,TRUE,TRUE,8,2,0,5,21,15,6,0.9856115107913669,,04-03-2015,12:03:17
12008,2,4,2,3,Recall,,0,1,13,,2,0,5,21,15,6,0.9856115107913669,,04-03-2015,12:03:17
12008,2,4,2,4,Recall,,0,16,8,,2,0,5,21,15,6,0.9856115107913669,,04-03-2015,12:03:17
12008,2,5,5,1,ProcessingTask,1114,1,FALSE,FALSE,8,5,1,5,21,15,6,0.9856115107913669,,04-03-2015,12:03:17
12008,2,5,5,2,ProcessingTask,593,1,TRUE,TRUE,2,5,1,5,21,15,6,0.9856115107913669,,04-03-2015,12:03:17
12008,2,5,5,3,ProcessingTask,848,1,FALSE,FALSE,16,5,1,5,21,15,6,0.9856115107913669,,04-03-2015,12:03:17
12008,2,5,5,4,ProcessingTask,589,1,TRUE,TRUE,4,5,1,5,21,15,6,0.9856115107913669,,04-03-2015,12:03:17
12008,2,5,5,5,ProcessingTask,575,1,FALSE,FALSE,11,5,1,5,21,15,6,0.9856115107913669,,04-03-2015,12:03:17
12008,2,5,5,6,Recall,,0,2,8,,5,1,5,21,15,6,0.9856115107913669,,04-03-2015,12:03:17
12008,2,5,5,7,Recall,,0,8,2,,5,1,5,21,15,6,0.9856115107913669,,04-03-2015,12:03:17
12008,2,5,5,8,Recall,,0,1,16,,5,1,5,21,15,6,0.9856115107913669,,04-03-2015,12:03:17
12008,2,5,5,9,Recall,,1,4,4,,5,1,5,21,15,6,0.9856115107913669,,04-03-2015,12:03:17
12008,2,5,5,10,Recall,,0,3,11,,5,1,5,21,15,6,0.9856115107913669,,04-03-2015,12:03:17
12008,2,6,3,1,ProcessingTask,530,1,TRUE,TRUE,14,3,3,5,21,15,6,0.9856115107913669,,04-03-2015,12:03:17
12008,2,6,3,2,ProcessingTask,595,1,FALSE,FALSE,12,3,3,5,21,15,6,0.9856115107913669,,04-03-2015,12:03:17
12008,2,6,3,3,ProcessingTask,605,1,FALSE,FALSE,10,3,3,5,21,15,6,0.9856115107913669,,04-03-2015,12:03:17
12008,2,6,3,4,Recall,,1,14,14,,3,3,5,21,15,6,0.9856115107913669,,04-03-2015,12:03:17
12008,2,6,3,5,Recall,,1,12,12,,3,3,5,21,15,6,0.9856115107913669,,04-03-2015,12:03:17
12008,2,6,3,6,Recall,,1,10,10,,3,3,5,21,15,6,0.9856115107913669,,04-03-2015,12:03:17
12010,1,1,3,1,ProcessingTask,625,1,FALSE,FALSE,7,3,3,8,18,11,7,0.9676258992805755,,04-21-2015,15:09:00
12010,1,1,3,2,ProcessingTask,632,1,FALSE,FALSE,4,3,3,8,18,11,7,0.9676258992805755,,04-21-2015,15:09:00
12010,1,1,3,3,ProcessingTask,539,1,TRUE,TRUE,10,3,3,8,18,11,7,0.9676258992805755,,04-21-2015,15:09:00
12010,1,1,3,4,Recall,,1,7,7,,3,3,8,18,11,7,0.9676258992805755,,04-21-2015,15:09:00
12010,1,1,3,5,Recall,,1,4,4,,3,3,8,18,11,7,0.9676258992805755,,04-21-2015,15:09:00
12010,1,1,3,6,Recall,,1,10,10,,3,3,8,18,11,7,0.9676258992805755,,04-21-2015,15:09:00
12010,1,2,2,1,ProcessingTask,812,1,TRUE,TRUE,4,2,2,8,18,11,7,0.9676258992805755,,04-21-2015,15:09:00
12010,1,2,2,2,ProcessingTask,576,1,TRUE,TRUE,16,2,2,8,18,11,7,0.9676258992805755,,04-21-2015,15:09:00
12010,1,2,2,3,Recall,,1,4,4,,2,2,8,18,11,7,0.9676258992805755,,04-21-2015,15:09:00
12010,1,2,2,4,Recall,,1,16,16,,2,2,8,18,11,7,0.9676258992805755,,04-21-2015,15:09:00
12010,1,3,7,1,ProcessingTask,871,1,FALSE,FALSE,16,6,1,8,18,11,7,0.9676258992805755,,04-21-2015,15:09:00
12010,1,3,7,2,ProcessingTask,620,1,TRUE,TRUE,1,6,1,8,18,11,7,0.9676258992805755,,04-21-2015,15:09:00
12010,1,3,7,3,ProcessingTask,558,0,FALSE,TRUE,13,6,1,8,18,11,7,0.9676258992805755,,04-21-2015,15:09:00
12010,1,3,7,4,ProcessingTask,493,1,TRUE,TRUE,3,6,1,8,18,11,7,0.9676258992805755,,04-21-2015,15:09:00
12010,1,3,7,5,ProcessingTask,540,1,FALSE,FALSE,10,6,1,8,18,11,7,0.9676258992805755,,04-21-2015,15:09:00
12010,1,3,7,6,ProcessingTask,456,1,TRUE,TRUE,11,6,1,8,18,11,7,0.9676258992805755,,04-21-2015,15:09:00
12010,1,3,7,7,ProcessingTask,501,1,TRUE,TRUE,6,6,1,8,18,11,7,0.9676258992805755,,04-21-2015,15:09:00
12010,1,3,7,8,Recall,,1,16,16,,6,1,8,18,11,7,0.9676258992805755,,04-21-2015,15:09:00
12010,1,3,7,9,Recall,,0,9,1,,6,1,8,18,11,7,0.9676258992805755,,04-21-2015,15:09:00
12010,1,3,7,10,Recall,,0,5,13,,6,1,8,18,11,7,0.9676258992805755,,04-21-2015,15:09:00
12010,1,3,7,11,Recall,,0,11,3,,6,1,8,18,11,7,0.9676258992805755,,04-21-2015,15:09:00
12010,1,3,7,12,Recall,,0,4,10,,6,1,8,18,11,7,0.9676258992805755,,04-21-2015,15:09:00
12010,1,3,7,13,Recall,,0,10,11,,6,1,8,18,11,7,0.9676258992805755,,04-21-2015,15:09:00
12010,1,3,7,14,Recall,,0,7,6,,6,1,8,18,11,7,0.9676258992805755,,04-21-2015,15:09:00
12010,1,4,5,1,ProcessingTask,626,1,FALSE,FALSE,12,5,4,8,18,11,7,0.9676258992805755,,04-21-2015,15:09:00
12010,1,4,5,2,ProcessingTask,628,1,FALSE,FALSE,15,5,4,8,18,11,7,0.9676258992805755,,04-21-2015,15:09:00
12010,1,4,5,3,ProcessingTask,1918,1,FALSE,FALSE,7,5,4,8,18,11,7,0.9676258992805755,,04-21-2015,15:09:00
12010,1,4,5,4,ProcessingTask,695,1,TRUE,TRUE,2,5,4,8,18,11,7,0.9676258992805755,,04-21-2015,15:09:00
12010,1,4,5,5,ProcessingTask,766,1,TRUE,TRUE,9,5,4,8,18,11,7,0.9676258992805755,,04-21-2015,15:09:00
12010,1,4,5,6,Recall,,1,12,12,,5,4,8,18,11,7,0.9676258992805755,,04-21-2015,15:09:00
12010,1,4,5,7,Recall,,1,15,15,,5,4,8,18,11,7,0.9676258992805755,,04-21-2015,15:09:00
12010,1,4,5,8,Recall,,1,7,7,,5,4,8,18,11,7,0.9676258992805755,,04-21-2015,15:09:00
12010,1,4,5,9,Recall,,0,10,2,,5,4,8,18,11,7,0.9676258992805755,,04-21-2015,15:09:00
12010,1,4,5,10,Recall,,1,9,9,,5,4,8,18,11,7,0.9676258992805755,,04-21-2015,15:09:00
12010,1,5,4,1,ProcessingTask,1194,1,FALSE,FALSE,2,4,0,8,18,11,7,0.9676258992805755,,04-21-2015,15:09:00
12010,1,5,4,2,ProcessingTask,1194,1,FALSE,FALSE,15,4,0,8,18,11,7,0.9676258992805755,,04-21-2015,15:09:00
12010,1,5,4,3,ProcessingTask,614,1,TRUE,TRUE,5,4,0,8,18,11,7,0.9676258992805755,,04-21-2015,15:09:00
12010,1,5,4,4,ProcessingTask,614,1,FALSE,FALSE,6,4,0,8,18,11,7,0.9676258992805755,,04-21-2015,15:09:00
12010,1,5,4,5,Recall,,0,15,2,,4,0,8,18,11,7,0.9676258992805755,,04-21-2015,15:09:00
12010,1,5,4,6,Recall,,0,9,15,,4,0,8,18,11,7,0.9676258992805755,,04-21-2015,15:09:00
12010,1,5,4,7,Recall,,0,2,5,,4,0,8,18,11,7,0.9676258992805755,,04-21-2015,15:09:00
12010,1,5,4,8,Recall,,,,6,,4,0,8,18,11,7,0.9676258992805755,,04-21-2015,15:09:00
12010,1,6,6,1,ProcessingTask,527,1,TRUE,TRUE,3,6,0,8,18,11,7,0.9676258992805755,,04-21-2015,15:09:00
12010,1,6,6,2,ProcessingTask,469,1,FALSE,FALSE,7,6,0,8,18,11,7,0.9676258992805755,,04-21-2015,15:09:00
12010,1,6,6,3,ProcessingTask,573,1,TRUE,TRUE,2,6,0,8,18,11,7,0.9676258992805755,,04-21-2015,15:09:00
12010,1,6,6,4,ProcessingTask,779,1,TRUE,TRUE,11,6,0,8,18,11,7,0.9676258992805755,,04-21-2015,15:09:00
12010,1,6,6,5,ProcessingTask,471,1,TRUE,TRUE,6,6,0,8,18,11,7,0.9676258992805755,,04-21-2015,15:09:00
12010,1,6,6,6,ProcessingTask,467,1,TRUE,TRUE,15,6,0,8,18,11,7,0.9676258992805755,,04-21-2015,15:09:00
12010,1,6,6,7,Recall,,0,7,3,,6,0,8,18,11,7,0.9676258992805755,,04-21-2015,15:09:00
12010,1,6,6,8,Recall,,0,3,7,,6,0,8,18,11,7,0.9676258992805755,,04-21-2015,15:09:00
12010,1,6,6,9,Recall,,0,11,2,,6,0,8,18,11,7,0.9676258992805755,,04-21-2015,15:09:00
12010,1,6,6,10,Recall,,,,11,,6,0,8,18,11,7,0.9676258992805755,,04-21-2015,15:09:00
12010,1,6,6,11,Recall,,0,15,6,,6,0,8,18,11,7,0.9676258992805755,,04-21-2015,15:09:00
12010,1,6,6,12,Recall,,0,6,15,,6,0,8,18,11,7,0.9676258992805755,,04-21-2015,15:09:00
12010,2,1,3,1,ProcessingTask,1535,1,FALSE,FALSE,8,3,3,8,18,11,7,0.9676258992805755,,04-21-2015,15:09:00
12010,2,1,3,2,ProcessingTask,649,1,FALSE,FALSE,11,3,3,8,18,11,7,0.9676258992805755,,04-21-2015,15:09:00
12010,2,1,3,3,ProcessingTask,504,1,TRUE,TRUE,10,3,3,8,18,11,7,0.9676258992805755,,04-21-2015,15:09:00
12010,2,1,3,4,Recall,,1,8,8,,3,3,8,18,11,7,0.9676258992805755,,04-21-2015,15:09:00
12010,2,1,3,5,Recall,,1,11,11,,3,3,8,18,11,7,0.9676258992805755,,04-21-2015,15:09:00
12010,2,1,3,6,Recall,,1,10,10,,3,3,8,18,11,7,0.9676258992805755,,04-21-2015,15:09:00
12010,2,2,7,1,ProcessingTask,687,1,FALSE,FALSE,13,7,1,8,18,11,7,0.9676258992805755,,04-21-2015,15:09:00
12010,2,2,7,2,ProcessingTask,931,1,FALSE,FALSE,14,7,1,8,18,11,7,0.9676258992805755,,04-21-2015,15:09:00
12010,2,2,7,3,ProcessingTask,569,1,TRUE,TRUE,15,7,1,8,18,11,7,0.9676258992805755,,04-21-2015,15:09:00
12010,2,2,7,4,ProcessingTask,617,1,TRUE,TRUE,8,7,1,8,18,11,7,0.9676258992805755,,04-21-2015,15:09:00
12010,2,2,7,5,ProcessingTask,562,1,TRUE,TRUE,6,7,1,8,18,11,7,0.9676258992805755,,04-21-2015,15:09:00
12010,2,2,7,6,ProcessingTask,243,1,FALSE,FALSE,16,7,1,8,18,11,7,0.9676258992805755,,04-21-2015,15:09:00
12010,2,2,7,7,ProcessingTask,979,1,FALSE,FALSE,3,7,1,8,18,11,7,0.9676258992805755,,04-21-2015,15:09:00
12010,2,2,7,8,Recall,,0,7,13,,7,1,8,18,11,7,0.9676258992805755,,04-21-2015,15:09:00
12010,2,2,7,9,Recall,,0,8,14,,7,1,8,18,11,7,0.9676258992805755,,04-21-2015,15:09:00
12010,2,2,7,10,Recall,,0,6,15,,7,1,8,18,11,7,0.9676258992805755,,04-21-2015,15:09:00
12010,2,2,7,11,Recall,,0,3,8,,7,1,8,18,11,7,0.9676258992805755,,04-21-2015,15:09:00
12010,2,2,7,12,Recall,,0,14,6,,7,1,8,18,11,7,0.9676258992805755,,04-21-2015,15:09:00
12010,2,2,7,13,Recall,,1,16,16,,7,1,8,18,11,7,0.9676258992805755,,04-21-2015,15:09:00
12010,2,2,7,14,Recall,,0,15,3,,7,1,8,18,11,7,0.9676258992805755,,04-21-2015,15:09:00
12010,2,3,5,1,ProcessingTask,544,1,FALSE,FALSE,11,5,1,8,18,11,7,0.9676258992805755,,04-21-2015,15:09:00
12010,2,3,5,2,ProcessingTask,638,1,FALSE,FALSE,2,5,1,8,18,11,7,0.9676258992805755,,04-21-2015,15:09:00
12010,2,3,5,3,ProcessingTask,768,1,TRUE,TRUE,9,5,1,8,18,11,7,0.9676258992805755,,04-21-2015,15:09:00
12010,2,3,5,4,ProcessingTask,1416,1,TRUE,TRUE,4,5,1,8,18,11,7,0.9676258992805755,,04-21-2015,15:09:00
12010,2,3,5,5,ProcessingTask,499,1,FALSE,FALSE,3,5,1,8,18,11,7,0.9676258992805755,,04-21-2015,15:09:00
12010,2,3,5,6,Recall,,,,11,,5,1,8,18,11,7,0.9676258992805755,,04-21-2015,15:09:00
12010,2,3,5,7,Recall,,,,2,,5,1,8,18,11,7,0.9676258992805755,,04-21-2015,15:09:00
12010,2,3,5,8,Recall,,1,9,9,,5,1,8,18,11,7,0.9676258992805755,,04-21-2015,15:09:00
12010,2,3,5,9,Recall,,0,15,4,,5,1,8,18,11,7,0.9676258992805755,,04-21-2015,15:09:00
12010,2,3,5,10,Recall,,0,14,3,,5,1,8,18,11,7,0.9676258992805755,,04-21-2015,15:09:00
12010,2,4,6,1,ProcessingTask,618,1,FALSE,FALSE,7,6,0,8,18,11,7,0.9676258992805755,,04-21-2015,15:09:00
12010,2,4,6,2,ProcessingTask,464,1,TRUE,TRUE,15,6,0,8,18,11,7,0.9676258992805755,,04-21-2015,15:09:00
12010,2,4,6,3,ProcessingTask,492,1,TRUE,TRUE,4,6,0,8,18,11,7,0.9676258992805755,,04-21-2015,15:09:00
12010,2,4,6,4,ProcessingTask,1024,1,FALSE,FALSE,10,6,0,8,18,11,7,0.9676258992805755,,04-21-2015,15:09:00
12010,2,4,6,5,ProcessingTask,635,1,FALSE,FALSE,1,6,0,8,18,11,7,0.9676258992805755,,04-21-2015,15:09:00
12010,2,4,6,6,ProcessingTask,841,1,TRUE,TRUE,11,6,0,8,18,11,7,0.9676258992805755,,04-21-2015,15:09:00
12010,2,4,6,7,Recall,,,,7,,6,0,8,18,11,7,0.9676258992805755,,04-21-2015,15:09:00
12010,2,4,6,8,Recall,,,,15,,6,0,8,18,11,7,0.9676258992805755,,04-21-2015,15:09:00
12010,2,4,6,9,Recall,,,,4,,6,0,8,18,11,7,0.9676258992805755,,04-21-2015,15:09:00
12010,2,4,6,10,Recall,,,,10,,6,0,8,18,11,7,0.9676258992805755,,04-21-2015,15:09:00
12010,2,4,6,11,Recall,,0,11,1,,6,0,8,18,11,7,0.9676258992805755,,04-21-2015,15:09:00
12010,2,4,6,12,Recall,,,,11,,6,0,8,18,11,7,0.9676258992805755,,04-21-2015,15:09:00
12010,2,5,2,1,ProcessingTask,517,1,TRUE,TRUE,3,1,1,8,18,11,7,0.9676258992805755,,04-21-2015,15:09:00
12010,2,5,2,2,ProcessingTask,2071,0,TRUE,FALSE,13,1,1,8,18,11,7,0.9676258992805755,,04-21-2015,15:09:00
12010,2,5,2,3,Recall,,1,3,3,,1,1,8,18,11,7,0.9676258992805755,,04-21-2015,15:09:00
12010,2,5,2,4,Recall,,0,2,13,,1,1,8,18,11,7,0.9676258992805755,,04-21-2015,15:09:00
12010,2,6,4,1,ProcessingTask,866,1,TRUE,TRUE,16,4,1,8,18,11,7,0.9676258992805755,,04-21-2015,15:09:00
12010,2,6,4,2,ProcessingTask,711,1,TRUE,TRUE,14,4,1,8,18,11,7,0.9676258992805755,,04-21-2015,15:09:00
12010,2,6,4,3,ProcessingTask,597,1,FALSE,FALSE,9,4,1,8,18,11,7,0.9676258992805755,,04-21-2015,15:09:00
12010,2,6,4,4,ProcessingTask,663,1,FALSE,FALSE,15,4,1,8,18,11,7,0.9676258992805755,,04-21-2015,15:09:00
12010,2,6,4,5,Recall,,,,16,,4,1,8,18,11,7,0.9676258992805755,,04-21-2015,15:09:00
12010,2,6,4,6,Recall,,,,14,,4,1,8,18,11,7,0.9676258992805755,,04-21-2015,15:09:00
12010,2,6,4,7,Recall,,,,9,,4,1,8,18,11,7,0.9676258992805755,,04-21-2015,15:09:00
12010,2,6,4,8,Recall,,1,15,15,,4,1,8,18,11,7,0.9676258992805755,,04-21-2015,15:09:00
12012,1,1,3,1,ProcessingTask,690,1,FALSE,FALSE,14,3,3,8,25,14,11,0.935251798561151,,03-31-2015,11:06:22
12012,1,1,3,2,ProcessingTask,1004,1,TRUE,TRUE,7,3,3,8,25,14,11,0.935251798561151,,03-31-2015,11:06:22
12012,1,1,3,3,ProcessingTask,699,1,FALSE,FALSE,4,3,3,8,25,14,11,0.935251798561151,,03-31-2015,11:06:22
12012,1,1,3,4,Recall,,1,14,14,,3,3,8,25,14,11,0.935251798561151,,03-31-2015,11:06:22
12012,1,1,3,5,Recall,,1,7,7,,3,3,8,25,14,11,0.935251798561151,,03-31-2015,11:06:22
12012,1,1,3,6,Recall,,1,4,4,,3,3,8,25,14,11,0.935251798561151,,03-31-2015,11:06:22
12012,1,2,6,1,ProcessingTask,822,1,TRUE,TRUE,5,6,5,8,25,14,11,0.935251798561151,,03-31-2015,11:06:22
12012,1,2,6,2,ProcessingTask,634,1,TRUE,TRUE,7,6,5,8,25,14,11,0.935251798561151,,03-31-2015,11:06:22
12012,1,2,6,3,ProcessingTask,558,1,FALSE,FALSE,14,6,5,8,25,14,11,0.935251798561151,,03-31-2015,11:06:22
12012,1,2,6,4,ProcessingTask,746,1,FALSE,FALSE,10,6,5,8,25,14,11,0.935251798561151,,03-31-2015,11:06:22
12012,1,2,6,5,ProcessingTask,621,1,FALSE,FALSE,13,6,5,8,25,14,11,0.935251798561151,,03-31-2015,11:06:22
12012,1,2,6,6,ProcessingTask,690,1,FALSE,FALSE,16,6,5,8,25,14,11,0.935251798561151,,03-31-2015,11:06:22
12012,1,2,6,7,Recall,,1,5,5,,6,5,8,25,14,11,0.935251798561151,,03-31-2015,11:06:22
12012,1,2,6,8,Recall,,0,6,7,,6,5,8,25,14,11,0.935251798561151,,03-31-2015,11:06:22
12012,1,2,6,9,Recall,,1,14,14,,6,5,8,25,14,11,0.935251798561151,,03-31-2015,11:06:22
12012,1,2,6,10,Recall,,1,10,10,,6,5,8,25,14,11,0.935251798561151,,03-31-2015,11:06:22
12012,1,2,6,11,Recall,,1,13,13,,6,5,8,25,14,11,0.935251798561151,,03-31-2015,11:06:22
12012,1,2,6,12,Recall,,1,16,16,,6,5,8,25,14,11,0.935251798561151,,03-31-2015,11:06:22
12012,1,3,5,1,ProcessingTask,692,1,FALSE,FALSE,14,4,2,8,25,14,11,0.935251798561151,,03-31-2015,11:06:22
12012,1,3,5,2,ProcessingTask,583,0,FALSE,TRUE,1,4,2,8,25,14,11,0.935251798561151,,03-31-2015,11:06:22
12012,1,3,5,3,ProcessingTask,1355,1,FALSE,FALSE,9,4,2,8,25,14,11,0.935251798561151,,03-31-2015,11:06:22
12012,1,3,5,4,ProcessingTask,552,1,TRUE,TRUE,4,4,2,8,25,14,11,0.935251798561151,,03-31-2015,11:06:22
12012,1,3,5,5,ProcessingTask,934,1,FALSE,FALSE,6,4,2,8,25,14,11,0.935251798561151,,03-31-2015,11:06:22
12012,1,3,5,6,Recall,,1,14,14,,4,2,8,25,14,11,0.935251798561151,,03-31-2015,11:06:22
12012,1,3,5,7,Recall,,0,9,1,,4,2,8,25,14,11,0.935251798561151,,03-31-2015,11:06:22
12012,1,3,5,8,Recall,,0,1,9,,4,2,8,25,14,11,0.935251798561151,,03-31-2015,11:06:22
12012,1,3,5,9,Recall,,0,12,4,,4,2,8,25,14,11,0.935251798561151,,03-31-2015,11:06:22
12012,1,3,5,10,Recall,,1,6,6,,4,2,8,25,14,11,0.935251798561151,,03-31-2015,11:06:22
12012,1,4,2,1,ProcessingTask,1796,1,FALSE,FALSE,16,2,2,8,25,14,11,0.935251798561151,,03-31-2015,11:06:22
12012,1,4,2,2,ProcessingTask,948,1,TRUE,TRUE,14,2,2,8,25,14,11,0.935251798561151,,03-31-2015,11:06:22
12012,1,4,2,3,Recall,,1,16,16,,2,2,8,25,14,11,0.935251798561151,,03-31-2015,11:06:22
12012,1,4,2,4,Recall,,1,14,14,,2,2,8,25,14,11,0.935251798561151,,03-31-2015,11:06:22
12012,1,5,4,1,ProcessingTask,721,1,TRUE,TRUE,10,4,1,8,25,14,11,0.935251798561151,,03-31-2015,11:06:22
12012,1,5,4,2,ProcessingTask,1883,1,FALSE,FALSE,1,4,1,8,25,14,11,0.935251798561151,,03-31-2015,11:06:22
12012,1,5,4,3,ProcessingTask,783,1,TRUE,TRUE,8,4,1,8,25,14,11,0.935251798561151,,03-31-2015,11:06:22
12012,1,5,4,4,ProcessingTask,686,1,TRUE,TRUE,3,4,1,8,25,14,11,0.935251798561151,,03-31-2015,11:06:22
12012,1,5,4,5,Recall,,1,10,10,,4,1,8,25,14,11,0.935251798561151,,03-31-2015,11:06:22
12012,1,5,4,6,Recall,,0,7,1,,4,1,8,25,14,11,0.935251798561151,,03-31-2015,11:06:22
12012,1,5,4,7,Recall,,0,9,8,,4,1,8,25,14,11,0.935251798561151,,03-31-2015,11:06:22
12012,1,5,4,8,Recall,,0,16,3,,4,1,8,25,14,11,0.935251798561151,,03-31-2015,11:06:22
12012,1,6,7,1,ProcessingTask,1035,0,FALSE,TRUE,5,6,1,8,25,14,11,0.935251798561151,,03-31-2015,11:06:22
12012,1,6,7,2,ProcessingTask,1744,1,FALSE,FALSE,10,6,1,8,25,14,11,0.935251798561151,,03-31-2015,11:06:22
12012,1,6,7,3,ProcessingTask,729,1,TRUE,TRUE,4,6,1,8,25,14,11,0.935251798561151,,03-31-2015,11:06:22
12012,1,6,7,4,ProcessingTask,907,1,FALSE,FALSE,6,6,1,8,25,14,11,0.935251798561151,,03-31-2015,11:06:22
12012,1,6,7,5,ProcessingTask,751,1,TRUE,TRUE,9,6,1,8,25,14,11,0.935251798561151,,03-31-2015,11:06:22
12012,1,6,7,6,ProcessingTask,1524,1,TRUE,TRUE,3,6,1,8,25,14,11,0.935251798561151,,03-31-2015,11:06:22
12012,1,6,7,7,ProcessingTask,1175,1,TRUE,TRUE,11,6,1,8,25,14,11,0.935251798561151,,03-31-2015,11:06:22
12012,1,6,7,8,Recall,,0,13,5,,6,1,8,25,14,11,0.935251798561151,,03-31-2015,11:06:22
12012,1,6,7,9,Recall,,1,10,10,,6,1,8,25,14,11,0.935251798561151,,03-31-2015,11:06:22
12012,1,6,7,10,Recall,,0,6,4,,6,1,8,25,14,11,0.935251798561151,,03-31-2015,11:06:22
12012,1,6,7,11,Recall,,0,14,6,,6,1,8,25,14,11,0.935251798561151,,03-31-2015,11:06:22
12012,1,6,7,12,Recall,,,,9,,6,1,8,25,14,11,0.935251798561151,,03-31-2015,11:06:22
12012,1,6,7,13,Recall,,0,11,3,,6,1,8,25,14,11,0.935251798561151,,03-31-2015,11:06:22
12012,1,6,7,14,Recall,,,,11,,6,1,8,25,14,11,0.935251798561151,,03-31-2015,11:06:22
12012,2,1,4,1,ProcessingTask,1635,1,FALSE,FALSE,11,4,3,8,25,14,11,0.935251798561151,,03-31-2015,11:06:22
12012,2,1,4,2,ProcessingTask,1021,1,FALSE,FALSE,3,4,3,8,25,14,11,0.935251798561151,,03-31-2015,11:06:22
12012,2,1,4,3,ProcessingTask,699,1,FALSE,FALSE,14,4,3,8,25,14,11,0.935251798561151,,03-31-2015,11:06:22
12012,2,1,4,4,ProcessingTask,1163,1,TRUE,TRUE,7,4,3,8,25,14,11,0.935251798561151,,03-31-2015,11:06:22
12012,2,1,4,5,Recall,,1,11,11,,4,3,8,25,14,11,0.935251798561151,,03-31-2015,11:06:22
12012,2,1,4,6,Recall,,1,3,3,,4,3,8,25,14,11,0.935251798561151,,03-31-2015,11:06:22
12012,2,1,4,7,Recall,,1,14,14,,4,3,8,25,14,11,0.935251798561151,,03-31-2015,11:06:22
12012,2,1,4,8,Recall,,0,6,7,,4,3,8,25,14,11,0.935251798561151,,03-31-2015,11:06:22
12012,2,2,5,1,ProcessingTask,1697,1,TRUE,TRUE,6,5,0,8,25,14,11,0.935251798561151,,03-31-2015,11:06:22
12012,2,2,5,2,ProcessingTask,1260,1,TRUE,TRUE,3,5,0,8,25,14,11,0.935251798561151,,03-31-2015,11:06:22
12012,2,2,5,3,ProcessingTask,900,1,FALSE,FALSE,7,5,0,8,25,14,11,0.935251798561151,,03-31-2015,11:06:22
12012,2,2,5,4,ProcessingTask,814,1,TRUE,TRUE,15,5,0,8,25,14,11,0.935251798561151,,03-31-2015,11:06:22
12012,2,2,5,5,ProcessingTask,1379,1,TRUE,TRUE,8,5,0,8,25,14,11,0.935251798561151,,03-31-2015,11:06:22
12012,2,2,5,6,Recall,,0,7,6,,5,0,8,25,14,11,0.935251798561151,,03-31-2015,11:06:22
12012,2,2,5,7,Recall,,0,10,3,,5,0,8,25,14,11,0.935251798561151,,03-31-2015,11:06:22
12012,2,2,5,8,Recall,,0,14,7,,5,0,8,25,14,11,0.935251798561151,,03-31-2015,11:06:22
12012,2,2,5,9,Recall,,0,6,15,,5,0,8,25,14,11,0.935251798561151,,03-31-2015,11:06:22
12012,2,2,5,10,Recall,,0,11,8,,5,0,8,25,14,11,0.935251798561151,,03-31-2015,11:06:22
12012,2,3,2,1,ProcessingTask,1176,1,FALSE,FALSE,14,2,1,8,25,14,11,0.935251798561151,,03-31-2015,11:06:22
12012,2,3,2,2,ProcessingTask,1357,1,FALSE,FALSE,12,2,1,8,25,14,11,0.935251798561151,,03-31-2015,11:06:22
12012,2,3,2,3,Recall,,1,14,14,,2,1,8,25,14,11,0.935251798561151,,03-31-2015,11:06:22
12012,2,3,2,4,Recall,,0,6,12,,2,1,8,25,14,11,0.935251798561151,,03-31-2015,11:06:22
12012,2,4,3,1,ProcessingTask,1271,1,FALSE,FALSE,14,3,3,8,25,14,11,0.935251798561151,,03-31-2015,11:06:22
12012,2,4,3,2,ProcessingTask,748,1,FALSE,FALSE,12,3,3,8,25,14,11,0.935251798561151,,03-31-2015,11:06:22
12012,2,4,3,3,ProcessingTask,1128,1,FALSE,FALSE,5,3,3,8,25,14,11,0.935251798561151,,03-31-2015,11:06:22
12012,2,4,3,4,Recall,,1,14,14,,3,3,8,25,14,11,0.935251798561151,,03-31-2015,11:06:22
12012,2,4,3,5,Recall,,1,12,12,,3,3,8,25,14,11,0.935251798561151,,03-31-2015,11:06:22
12012,2,4,3,6,Recall,,1,5,5,,3,3,8,25,14,11,0.935251798561151,,03-31-2015,11:06:22
12012,2,5,7,1,ProcessingTask,1254,1,TRUE,TRUE,10,7,2,8,25,14,11,0.935251798561151,,03-31-2015,11:06:22
12012,2,5,7,2,ProcessingTask,851,1,TRUE,TRUE,7,7,2,8,25,14,11,0.935251798561151,,03-31-2015,11:06:22
12012,2,5,7,3,ProcessingTask,820,1,TRUE,TRUE,5,7,2,8,25,14,11,0.935251798561151,,03-31-2015,11:06:22
12012,2,5,7,4,ProcessingTask,850,1,TRUE,TRUE,3,7,2,8,25,14,11,0.935251798561151,,03-31-2015,11:06:22
12012,2,5,7,5,ProcessingTask,709,1,FALSE,FALSE,14,7,2,8,25,14,11,0.935251798561151,,03-31-2015,11:06:22
12012,2,5,7,6,ProcessingTask,1002,1,FALSE,FALSE,11,7,2,8,25,14,11,0.935251798561151,,03-31-2015,11:06:22
12012,2,5,7,7,ProcessingTask,842,1,TRUE,TRUE,1,7,2,8,25,14,11,0.935251798561151,,03-31-2015,11:06:22
12012,2,5,7,8,Recall,,1,10,10,,7,2,8,25,14,11,0.935251798561151,,03-31-2015,11:06:22
12012,2,5,7,9,Recall,,1,7,7,,7,2,8,25,14,11,0.935251798561151,,03-31-2015,11:06:22
12012,2,5,7,10,Recall,,,,5,,7,2,8,25,14,11,0.935251798561151,,03-31-2015,11:06:22
12012,2,5,7,11,Recall,,,,3,,7,2,8,25,14,11,0.935251798561151,,03-31-2015,11:06:22
12012,2,5,7,12,Recall,,,,14,,7,2,8,25,14,11,0.935251798561151,,03-31-2015,11:06:22
12012,2,5,7,13,Recall,,,,11,,7,2,8,25,14,11,0.935251798561151,,03-31-2015,11:06:22
12012,2,5,7,14,Recall,,,,1,,7,2,8,25,14,11,0.935251798561151,,03-31-2015,11:06:22
12012,2,6,6,1,ProcessingTask,826,1,TRUE,TRUE,16,5,2,8,25,14,11,0.935251798561151,,03-31-2015,11:06:22
12012,2,6,6,2,ProcessingTask,1683,1,FALSE,FALSE,4,5,2,8,25,14,11,0.935251798561151,,03-31-2015,11:06:22
12012,2,6,6,3,ProcessingTask,802,1,TRUE,TRUE,10,5,2,8,25,14,11,0.935251798561151,,03-31-2015,11:06:22
12012,2,6,6,4,ProcessingTask,549,1,FALSE,FALSE,12,5,2,8,25,14,11,0.935251798561151,,03-31-2015,11:06:22
12012,2,6,6,5,ProcessingTask,1027,0,FALSE,TRUE,13,5,2,8,25,14,11,0.935251798561151,,03-31-2015,11:06:22
12012,2,6,6,6,ProcessingTask,1445,1,FALSE,FALSE,5,5,2,8,25,14,11,0.935251798561151,,03-31-2015,11:06:22
12012,2,6,6,7,Recall,,1,16,16,,5,2,8,25,14,11,0.935251798561151,,03-31-2015,11:06:22
12012,2,6,6,8,Recall,,0,2,4,,5,2,8,25,14,11,0.935251798561151,,03-31-2015,11:06:22
12012,2,6,6,9,Recall,,0,4,10,,5,2,8,25,14,11,0.935251798561151,,03-31-2015,11:06:22
12012,2,6,6,10,Recall,,,,12,,5,2,8,25,14,11,0.935251798561151,,03-31-2015,11:06:22
12012,2,6,6,11,Recall,,,,13,,5,2,8,25,14,11,0.935251798561151,,03-31-2015,11:06:22
12012,2,6,6,12,Recall,,1,5,5,,5,2,8,25,14,11,0.935251798561151,,03-31-2015,11:06:22
12013,1,1,5,1,ProcessingTask,1134,1,FALSE,FALSE,1,5,3,19,31,12,19,0.8992805755395683,,04-03-2015,15:13:54
12013,1,1,5,2,ProcessingTask,524,1,TRUE,TRUE,16,5,3,19,31,12,19,0.8992805755395683,,04-03-2015,15:13:54
12013,1,1,5,3,ProcessingTask,1189,1,TRUE,TRUE,12,5,3,19,31,12,19,0.8992805755395683,,04-03-2015,15:13:54
12013,1,1,5,4,ProcessingTask,626,1,FALSE,FALSE,15,5,3,19,31,12,19,0.8992805755395683,,04-03-2015,15:13:54
12013,1,1,5,5,ProcessingTask,1295,1,TRUE,TRUE,4,5,3,19,31,12,19,0.8992805755395683,,04-03-2015,15:13:54
12013,1,1,5,6,Recall,,1,1,1,,5,3,19,31,12,19,0.8992805755395683,,04-03-2015,15:13:54
12013,1,1,5,7,Recall,,1,16,16,,5,3,19,31,12,19,0.8992805755395683,,04-03-2015,15:13:54
12013,1,1,5,8,Recall,,1,12,12,,5,3,19,31,12,19,0.8992805755395683,,04-03-2015,15:13:54
12013,1,1,5,9,Recall,,0,14,15,,5,3,19,31,12,19,0.8992805755395683,,04-03-2015,15:13:54
12013,1,1,5,10,Recall,,0,6,4,,5,3,19,31,12,19,0.8992805755395683,,04-03-2015,15:13:54
12013,1,2,7,1,ProcessingTask,815,1,TRUE,TRUE,16,6,0,19,31,12,19,0.8992805755395683,,04-03-2015,15:13:54
12013,1,2,7,2,ProcessingTask,549,1,TRUE,TRUE,4,6,0,19,31,12,19,0.8992805755395683,,04-03-2015,15:13:54
12013,1,2,7,3,ProcessingTask,964,1,TRUE,TRUE,15,6,0,19,31,12,19,0.8992805755395683,,04-03-2015,15:13:54
12013,1,2,7,4,ProcessingTask,739,1,TRUE,TRUE,7,6,0,19,31,12,19,0.8992805755395683,,04-03-2015,15:13:54
12013,1,2,7,5,ProcessingTask,739,1,TRUE,TRUE,11,6,0,19,31,12,19,0.8992805755395683,,04-03-2015,15:13:54
12013,1,2,7,6,ProcessingTask,1107,1,FALSE,FALSE,12,6,0,19,31,12,19,0.8992805755395683,,04-03-2015,15:13:54
12013,1,2,7,7,ProcessingTask,906,0,TRUE,FALSE,6,6,0,19,31,12,19,0.8992805755395683,,04-03-2015,15:13:54
12013,1,2,7,8,Recall,,0,12,16,,6,0,19,31,12,19,0.8992805755395683,,04-03-2015,15:13:54
12013,1,2,7,9,Recall,,0,8,4,,6,0,19,31,12,19,0.8992805755395683,,04-03-2015,15:13:54
12013,1,2,7,10,Recall,,0,16,15,,6,0,19,31,12,19,0.8992805755395683,,04-03-2015,15:13:54
12013,1,2,7,11,Recall,,0,4,7,,6,0,19,31,12,19,0.8992805755395683,,04-03-2015,15:13:54
12013,1,2,7,12,Recall,,0,14,11,,6,0,19,31,12,19,0.8992805755395683,,04-03-2015,15:13:54
12013,1,2,7,13,Recall,,0,6,12,,6,0,19,31,12,19,0.8992805755395683,,04-03-2015,15:13:54
12013,1,2,7,14,Recall,,,,6,,6,0,19,31,12,19,0.8992805755395683,,04-03-2015,15:13:54
12013,1,3,6,1,ProcessingTask,1493,1,FALSE,FALSE,8,6,0,19,31,12,19,0.8992805755395683,,04-03-2015,15:13:54
12013,1,3,6,2,ProcessingTask,1338,1,TRUE,TRUE,14,6,0,19,31,12,19,0.8992805755395683,,04-03-2015,15:13:54
12013,1,3,6,3,ProcessingTask,2207,1,FALSE,FALSE,12,6,0,19,31,12,19,0.8992805755395683,,04-03-2015,15:13:54
12013,1,3,6,4,ProcessingTask,2207,1,FALSE,FALSE,13,6,0,19,31,12,19,0.8992805755395683,,04-03-2015,15:13:54
12013,1,3,6,5,ProcessingTask,1191,1,FALSE,FALSE,4,6,0,19,31,12,19,0.8992805755395683,,04-03-2015,15:13:54
12013,1,3,6,6,ProcessingTask,1012,1,TRUE,TRUE,9,6,0,19,31,12,19,0.8992805755395683,,04-03-2015,15:13:54
12013,1,3,6,7,Recall,,0,16,8,,6,0,19,31,12,19,0.8992805755395683,,04-03-2015,15:13:54
12013,1,3,6,8,Recall,,0,4,14,,6,0,19,31,12,19,0.8992805755395683,,04-03-2015,15:13:54
12013,1,3,6,9,Recall,,0,14,12,,6,0,19,31,12,19,0.8992805755395683,,04-03-2015,15:13:54
12013,1,3,6,10,Recall,,0,6,13,,6,0,19,31,12,19,0.8992805755395683,,04-03-2015,15:13:54
12013,1,3,6,11,Recall,,0,9,4,,6,0,19,31,12,19,0.8992805755395683,,04-03-2015,15:13:54
12013,1,3,6,12,Recall,,,,9,,6,0,19,31,12,19,0.8992805755395683,,04-03-2015,15:13:54
12013,1,4,4,1,ProcessingTask,1755,1,TRUE,TRUE,15,3,4,19,31,12,19,0.8992805755395683,,04-03-2015,15:13:54
12013,1,4,4,2,ProcessingTask,1583,0,TRUE,FALSE,12,3,4,19,31,12,19,0.8992805755395683,,04-03-2015,15:13:54
12013,1,4,4,3,ProcessingTask,816,1,FALSE,FALSE,5,3,4,19,31,12,19,0.8992805755395683,,04-03-2015,15:13:54
12013,1,4,4,4,ProcessingTask,1685,1,TRUE,TRUE,14,3,4,19,31,12,19,0.8992805755395683,,04-03-2015,15:13:54
12013,1,4,4,5,Recall,,1,15,15,,3,4,19,31,12,19,0.8992805755395683,,04-03-2015,15:13:54
12013,1,4,4,6,Recall,,1,12,12,,3,4,19,31,12,19,0.8992805755395683,,04-03-2015,15:13:54
12013,1,4,4,7,Recall,,1,5,5,,3,4,19,31,12,19,0.8992805755395683,,04-03-2015,15:13:54
12013,1,4,4,8,Recall,,1,14,14,,3,4,19,31,12,19,0.8992805755395683,,04-03-2015,15:13:54
12013,1,5,2,1,ProcessingTask,1112,1,TRUE,TRUE,9,1,2,19,31,12,19,0.8992805755395683,,04-03-2015,15:13:54
12013,1,5,2,2,ProcessingTask,1097,0,TRUE,FALSE,3,1,2,19,31,12,19,0.8992805755395683,,04-03-2015,15:13:54
12013,1,5,2,3,Recall,,1,9,9,,1,2,19,31,12,19,0.8992805755395683,,04-03-2015,15:13:54
12013,1,5,2,4,Recall,,1,3,3,,1,2,19,31,12,19,0.8992805755395683,,04-03-2015,15:13:54
12013,1,6,3,1,ProcessingTask,982,0,TRUE,FALSE,7,1,3,19,31,12,19,0.8992805755395683,,04-03-2015,15:13:54
12013,1,6,3,2,ProcessingTask,502,1,TRUE,TRUE,11,1,3,19,31,12,19,0.8992805755395683,,04-03-2015,15:13:54
12013,1,6,3,3,ProcessingTask,1127,0,TRUE,FALSE,2,1,3,19,31,12,19,0.8992805755395683,,04-03-2015,15:13:54
12013,1,6,3,4,Recall,,1,7,7,,1,3,19,31,12,19,0.8992805755395683,,04-03-2015,15:13:54
12013,1,6,3,5,Recall,,1,11,11,,1,3,19,31,12,19,0.8992805755395683,,04-03-2015,15:13:54
12013,1,6,3,6,Recall,,1,2,2,,1,3,19,31,12,19,0.8992805755395683,,04-03-2015,15:13:54
12013,2,1,4,1,ProcessingTask,777,0,TRUE,FALSE,14,3,2,19,31,12,19,0.8992805755395683,,04-03-2015,15:13:54
12013,2,1,4,2,ProcessingTask,1645,1,FALSE,FALSE,10,3,2,19,31,12,19,0.8992805755395683,,04-03-2015,15:13:54
12013,2,1,4,3,ProcessingTask,992,1,TRUE,TRUE,6,3,2,19,31,12,19,0.8992805755395683,,04-03-2015,15:13:54
12013,2,1,4,4,ProcessingTask,610,1,TRUE,TRUE,13,3,2,19,31,12,19,0.8992805755395683,,04-03-2015,15:13:54
12013,2,1,4,5,Recall,,0,10,14,,3,2,19,31,12,19,0.8992805755395683,,04-03-2015,15:13:54
12013,2,1,4,6,Recall,,0,14,10,,3,2,19,31,12,19,0.8992805755395683,,04-03-2015,15:13:54
12013,2,1,4,7,Recall,,1,6,6,,3,2,19,31,12,19,0.8992805755395683,,04-03-2015,15:13:54
12013,2,1,4,8,Recall,,1,13,13,,3,2,19,31,12,19,0.8992805755395683,,04-03-2015,15:13:54
12013,2,2,7,1,ProcessingTask,1165,1,FALSE,FALSE,10,7,6,19,31,12,19,0.8992805755395683,,04-03-2015,15:13:54
12013,2,2,7,2,ProcessingTask,1223,1,FALSE,FALSE,15,7,6,19,31,12,19,0.8992805755395683,,04-03-2015,15:13:54
12013,2,2,7,3,ProcessingTask,2543,1,TRUE,TRUE,13,7,6,19,31,12,19,0.8992805755395683,,04-03-2015,15:13:54
12013,2,2,7,4,ProcessingTask,1247,1,TRUE,TRUE,3,7,6,19,31,12,19,0.8992805755395683,,04-03-2015,15:13:54
12013,2,2,7,5,ProcessingTask,1593,1,TRUE,TRUE,12,7,6,19,31,12,19,0.8992805755395683,,04-03-2015,15:13:54
12013,2,2,7,6,ProcessingTask,695,1,FALSE,FALSE,14,7,6,19,31,12,19,0.8992805755395683,,04-03-2015,15:13:54
12013,2,2,7,7,ProcessingTask,580,1,FALSE,FALSE,9,7,6,19,31,12,19,0.8992805755395683,,04-03-2015,15:13:54
12013,2,2,7,8,Recall,,1,10,10,,7,6,19,31,12,19,0.8992805755395683,,04-03-2015,15:13:54
12013,2,2,7,9,Recall,,1,15,15,,7,6,19,31,12,19,0.8992805755395683,,04-03-2015,15:13:54
12013,2,2,7,10,Recall,,1,13,13,,7,6,19,31,12,19,0.8992805755395683,,04-03-2015,15:13:54
12013,2,2,7,11,Recall,,1,3,3,,7,6,19,31,12,19,0.8992805755395683,,04-03-2015,15:13:54
12013,2,2,7,12,Recall,,1,12,12,,7,6,19,31,12,19,0.8992805755395683,,04-03-2015,15:13:54
12013,2,2,7,13,Recall,,1,14,14,,7,6,19,31,12,19,0.8992805755395683,,04-03-2015,15:13:54
12013,2,2,7,14,Recall,,,,9,,7,6,19,31,12,19,0.8992805755395683,,04-03-2015,15:13:54
12013,2,3,6,1,ProcessingTask,2044,1,FALSE,FALSE,4,6,1,19,31,12,19,0.8992805755395683,,04-03-2015,15:13:54
12013,2,3,6,2,ProcessingTask,2546,1,FALSE,FALSE,16,6,1,19,31,12,19,0.8992805755395683,,04-03-2015,15:13:54
12013,2,3,6,3,ProcessingTask,1663,1,FALSE,FALSE,2,6,1,19,31,12,19,0.8992805755395683,,04-03-2015,15:13:54
12013,2,3,6,4,ProcessingTask,1474,1,TRUE,TRUE,14,6,1,19,31,12,19,0.8992805755395683,,04-03-2015,15:13:54
12013,2,3,6,5,ProcessingTask,1787,1,TRUE,TRUE,5,6,1,19,31,12,19,0.8992805755395683,,04-03-2015,15:13:54
12013,2,3,6,6,ProcessingTask,611,1,FALSE,FALSE,11,6,1,19,31,12,19,0.8992805755395683,,04-03-2015,15:13:54
12013,2,3,6,7,Recall,,0,2,4,,6,1,19,31,12,19,0.8992805755395683,,04-03-2015,15:13:54
12013,2,3,6,8,Recall,,0,2,16,,6,1,19,31,12,19,0.8992805755395683,,04-03-2015,15:13:54
12013,2,3,6,9,Recall,,0,16,2,,6,1,19,31,12,19,0.8992805755395683,,04-03-2015,15:13:54
12013,2,3,6,10,Recall,,0,7,14,,6,1,19,31,12,19,0.8992805755395683,,04-03-2015,15:13:54
12013,2,3,6,11,Recall,,0,14,5,,6,1,19,31,12,19,0.8992805755395683,,04-03-2015,15:13:54
12013,2,3,6,12,Recall,,1,11,11,,6,1,19,31,12,19,0.8992805755395683,,04-03-2015,15:13:54
12013,2,4,2,1,ProcessingTask,1980,1,FALSE,FALSE,9,2,2,19,31,12,19,0.8992805755395683,,04-03-2015,15:13:54
12013,2,4,2,2,ProcessingTask,1150,1,FALSE,FALSE,10,2,2,19,31,12,19,0.8992805755395683,,04-03-2015,15:13:54
12013,2,4,2,3,Recall,,1,9,9,,2,2,19,31,12,19,0.8992805755395683,,04-03-2015,15:13:54
12013,2,4,2,4,Recall,,1,10,10,,2,2,19,31,12,19,0.8992805755395683,,04-03-2015,15:13:54
12013,2,5,5,1,ProcessingTask,1481,1,TRUE,TRUE,2,4,5,19,31,12,19,0.8992805755395683,,04-03-2015,15:13:54
12013,2,5,5,2,ProcessingTask,461,1,TRUE,TRUE,13,4,5,19,31,12,19,0.8992805755395683,,04-03-2015,15:13:54
12013,2,5,5,3,ProcessingTask,1252,1,FALSE,FALSE,7,4,5,19,31,12,19,0.8992805755395683,,04-03-2015,15:13:54
12013,2,5,5,4,ProcessingTask,1217,0,TRUE,FALSE,5,4,5,19,31,12,19,0.8992805755395683,,04-03-2015,15:13:54
12013,2,5,5,5,ProcessingTask,871,1,TRUE,TRUE,6,4,5,19,31,12,19,0.8992805755395683,,04-03-2015,15:13:54
12013,2,5,5,6,Recall,,1,2,2,,4,5,19,31,12,19,0.8992805755395683,,04-03-2015,15:13:54
12013,2,5,5,7,Recall,,1,13,13,,4,5,19,31,12,19,0.8992805755395683,,04-03-2015,15:13:54
12013,2,5,5,8,Recall,,1,7,7,,4,5,19,31,12,19,0.8992805755395683,,04-03-2015,15:13:54
12013,2,5,5,9,Recall,,1,5,5,,4,5,19,31,12,19,0.8992805755395683,,04-03-2015,15:13:54
12013,2,5,5,10,Recall,,1,6,6,,4,5,19,31,12,19,0.8992805755395683,,04-03-2015,15:13:54
12013,2,6,3,1,ProcessingTask,405,1,TRUE,TRUE,14,3,3,19,31,12,19,0.8992805755395683,,04-03-2015,15:13:54
12013,2,6,3,2,ProcessingTask,2452,1,TRUE,TRUE,10,3,3,19,31,12,19,0.8992805755395683,,04-03-2015,15:13:54
12013,2,6,3,3,ProcessingTask,1399,1,FALSE,FALSE,11,3,3,19,31,12,19,0.8992805755395683,,04-03-2015,15:13:54
12013,2,6,3,4,Recall,,1,14,14,,3,3,19,31,12,19,0.8992805755395683,,04-03-2015,15:13:54
12013,2,6,3,5,Recall,,1,10,10,,3,3,19,31,12,19,0.8992805755395683,,04-03-2015,15:13:54
12013,2,6,3,6,Recall,,1,11,11,,3,3,19,31,12,19,0.8992805755395683,,04-03-2015,15:13:54
12014,1,1,3,1,ProcessingTask,1051,1,TRUE,TRUE,3,3,2,8,21,8,13,1,,10-06-2015,14:04:57
12014,1,1,3,2,ProcessingTask,973,1,FALSE,FALSE,13,3,2,8,21,8,13,1,,10-06-2015,14:04:57
12014,1,1,3,3,ProcessingTask,1169,1,FALSE,FALSE,12,3,2,8,21,8,13,1,,10-06-2015,14:04:57
12014,1,1,3,4,Recall,,0,11,3,,3,2,8,21,8,13,1,,10-06-2015,14:04:57
12014,1,1,3,5,Recall,,1,13,13,,3,2,8,21,8,13,1,,10-06-2015,14:04:57
12014,1,1,3,6,Recall,,1,12,12,,3,2,8,21,8,13,1,,10-06-2015,14:04:57
12014,1,2,5,1,ProcessingTask,1218,1,FALSE,FALSE,15,5,2,8,21,8,13,1,,10-06-2015,14:04:57
12014,1,2,5,2,ProcessingTask,1014,1,TRUE,TRUE,10,5,2,8,21,8,13,1,,10-06-2015,14:04:57
12014,1,2,5,3,ProcessingTask,759,1,FALSE,FALSE,13,5,2,8,21,8,13,1,,10-06-2015,14:04:57
12014,1,2,5,4,ProcessingTask,885,1,FALSE,FALSE,3,5,2,8,21,8,13,1,,10-06-2015,14:04:57
12014,1,2,5,5,ProcessingTask,649,1,TRUE,TRUE,16,5,2,8,21,8,13,1,,10-06-2015,14:04:57
12014,1,2,5,6,Recall,,1,15,15,,5,2,8,21,8,13,1,,10-06-2015,14:04:57
12014,1,2,5,7,Recall,,1,10,10,,5,2,8,21,8,13,1,,10-06-2015,14:04:57
12014,1,2,5,8,Recall,,0,12,13,,5,2,8,21,8,13,1,,10-06-2015,14:04:57
12014,1,2,5,9,Recall,,,,3,,5,2,8,21,8,13,1,,10-06-2015,14:04:57
12014,1,2,5,10,Recall,,0,5,16,,5,2,8,21,8,13,1,,10-06-2015,14:04:57
12014,1,3,6,1,ProcessingTask,1134,1,TRUE,TRUE,3,6,0,8,21,8,13,1,,10-06-2015,14:04:57
12014,1,3,6,2,ProcessingTask,1875,1,TRUE,TRUE,12,6,0,8,21,8,13,1,,10-06-2015,14:04:57
12014,1,3,6,3,ProcessingTask,1524,1,FALSE,FALSE,13,6,0,8,21,8,13,1,,10-06-2015,14:04:57
12014,1,3,6,4,ProcessingTask,1881,1,FALSE,FALSE,9,6,0,8,21,8,13,1,,10-06-2015,14:04:57
12014,1,3,6,5,ProcessingTask,659,1,TRUE,TRUE,14,6,0,8,21,8,13,1,,10-06-2015,14:04:57
12014,1,3,6,6,ProcessingTask,1158,1,FALSE,FALSE,10,6,0,8,21,8,13,1,,10-06-2015,14:04:57
12014,1,3,6,7,Recall,,0,5,3,,6,0,8,21,8,13,1,,10-06-2015,14:04:57
12014,1,3,6,8,Recall,,,,12,,6,0,8,21,8,13,1,,10-06-2015,14:04:57
12014,1,3,6,9,Recall,,0,12,13,,6,0,8,21,8,13,1,,10-06-2015,14:04:57
12014,1,3,6,10,Recall,,0,16,9,,6,0,8,21,8,13,1,,10-06-2015,14:04:57
12014,1,3,6,11,Recall,,0,11,14,,6,0,8,21,8,13,1,,10-06-2015,14:04:57
12014,1,3,6,12,Recall,,,,10,,6,0,8,21,8,13,1,,10-06-2015,14:04:57
12014,1,4,7,1,ProcessingTask,1049,1,FALSE,FALSE,7,7,1,8,21,8,13,1,,10-06-2015,14:04:57
12014,1,4,7,2,ProcessingTask,1088,1,FALSE,FALSE,16,7,1,8,21,8,13,1,,10-06-2015,14:04:57
12014,1,4,7,3,ProcessingTask,1415,1,TRUE,TRUE,2,7,1,8,21,8,13,1,,10-06-2015,14:04:57
12014,1,4,7,4,ProcessingTask,872,1,FALSE,FALSE,4,7,1,8,21,8,13,1,,10-06-2015,14:04:57
12014,1,4,7,5,ProcessingTask,902,1,FALSE,FALSE,11,7,1,8,21,8,13,1,,10-06-2015,14:04:57
12014,1,4,7,6,ProcessingTask,1038,1,FALSE,FALSE,15,7,1,8,21,8,13,1,,10-06-2015,14:04:57
12014,1,4,7,7,ProcessingTask,832,1,FALSE,FALSE,14,7,1,8,21,8,13,1,,10-06-2015,14:04:57
12014,1,4,7,8,Recall,,1,7,7,,7,1,8,21,8,13,1,,10-06-2015,14:04:57
12014,1,4,7,9,Recall,,0,3,16,,7,1,8,21,8,13,1,,10-06-2015,14:04:57
12014,1,4,7,10,Recall,,0,11,2,,7,1,8,21,8,13,1,,10-06-2015,14:04:57
12014,1,4,7,11,Recall,,0,13,4,,7,1,8,21,8,13,1,,10-06-2015,14:04:57
12014,1,4,7,12,Recall,,0,2,11,,7,1,8,21,8,13,1,,10-06-2015,14:04:57
12014,1,4,7,13,Recall,,0,14,15,,7,1,8,21,8,13,1,,10-06-2015,14:04:57
12014,1,4,7,14,Recall,,,,14,,7,1,8,21,8,13,1,,10-06-2015,14:04:57
12014,1,5,4,1,ProcessingTask,436,1,FALSE,FALSE,8,4,1,8,21,8,13,1,,10-06-2015,14:04:57
12014,1,5,4,2,ProcessingTask,1019,1,TRUE,TRUE,15,4,1,8,21,8,13,1,,10-06-2015,14:04:57
12014,1,5,4,3,ProcessingTask,1135,1,TRUE,TRUE,13,4,1,8,21,8,13,1,,10-06-2015,14:04:57
12014,1,5,4,4,ProcessingTask,1688,1,TRUE,TRUE,7,4,1,8,21,8,13,1,,10-06-2015,14:04:57
12014,1,5,4,5,Recall,,0,5,8,,4,1,8,21,8,13,1,,10-06-2015,14:04:57
12014,1,5,4,6,Recall,,0,11,15,,4,1,8,21,8,13,1,,10-06-2015,14:04:57
12014,1,5,4,7,Recall,,0,16,13,,4,1,8,21,8,13,1,,10-06-2015,14:04:57
12014,1,5,4,8,Recall,,1,7,7,,4,1,8,21,8,13,1,,10-06-2015,14:04:57
12014,1,6,2,1,ProcessingTask,910,1,TRUE,TRUE,10,2,2,8,21,8,13,1,,10-06-2015,14:04:57
12014,1,6,2,2,ProcessingTask,1203,1,FALSE,FALSE,11,2,2,8,21,8,13,1,,10-06-2015,14:04:57
12014,1,6,2,3,Recall,,1,10,10,,2,2,8,21,8,13,1,,10-06-2015,14:04:57
12014,1,6,2,4,Recall,,1,11,11,,2,2,8,21,8,13,1,,10-06-2015,14:04:57
12014,2,1,6,1,ProcessingTask,857,1,TRUE,TRUE,9,6,1,8,21,8,13,1,,10-06-2015,14:04:57
12014,2,1,6,2,ProcessingTask,759,1,TRUE,TRUE,5,6,1,8,21,8,13,1,,10-06-2015,14:04:57
12014,2,1,6,3,ProcessingTask,502,1,FALSE,FALSE,4,6,1,8,21,8,13,1,,10-06-2015,14:04:57
12014,2,1,6,4,ProcessingTask,880,1,TRUE,TRUE,1,6,1,8,21,8,13,1,,10-06-2015,14:04:57
12014,2,1,6,5,ProcessingTask,781,1,TRUE,TRUE,11,6,1,8,21,8,13,1,,10-06-2015,14:04:57
12014,2,1,6,6,ProcessingTask,814,1,TRUE,TRUE,15,6,1,8,21,8,13,1,,10-06-2015,14:04:57
12014,2,1,6,7,Recall,,0,4,9,,6,1,8,21,8,13,1,,10-06-2015,14:04:57
12014,2,1,6,8,Recall,,0,2,5,,6,1,8,21,8,13,1,,10-06-2015,14:04:57
12014,2,1,6,9,Recall,,0,5,4,,6,1,8,21,8,13,1,,10-06-2015,14:04:57
12014,2,1,6,10,Recall,,0,9,1,,6,1,8,21,8,13,1,,10-06-2015,14:04:57
12014,2,1,6,11,Recall,,0,13,11,,6,1,8,21,8,13,1,,10-06-2015,14:04:57
12014,2,1,6,12,Recall,,1,15,15,,6,1,8,21,8,13,1,,10-06-2015,14:04:57
12014,2,2,3,1,ProcessingTask,704,1,FALSE,FALSE,4,3,2,8,21,8,13,1,,10-06-2015,14:04:57
12014,2,2,3,2,ProcessingTask,629,1,FALSE,FALSE,16,3,2,8,21,8,13,1,,10-06-2015,14:04:57
12014,2,2,3,3,ProcessingTask,900,1,FALSE,FALSE,14,3,2,8,21,8,13,1,,10-06-2015,14:04:57
12014,2,2,3,4,Recall,,0,1,4,,3,2,8,21,8,13,1,,10-06-2015,14:04:57
12014,2,2,3,5,Recall,,1,16,16,,3,2,8,21,8,13,1,,10-06-2015,14:04:57
12014,2,2,3,6,Recall,,1,14,14,,3,2,8,21,8,13,1,,10-06-2015,14:04:57
12014,2,3,4,1,ProcessingTask,1086,1,FALSE,FALSE,12,4,4,8,21,8,13,1,,10-06-2015,14:04:57
12014,2,3,4,2,ProcessingTask,604,1,TRUE,TRUE,11,4,4,8,21,8,13,1,,10-06-2015,14:04:57
12014,2,3,4,3,ProcessingTask,555,1,TRUE,TRUE,9,4,4,8,21,8,13,1,,10-06-2015,14:04:57
12014,2,3,4,4,ProcessingTask,601,1,TRUE,TRUE,15,4,4,8,21,8,13,1,,10-06-2015,14:04:57
12014,2,3,4,5,Recall,,1,12,12,,4,4,8,21,8,13,1,,10-06-2015,14:04:57
12014,2,3,4,6,Recall,,1,11,11,,4,4,8,21,8,13,1,,10-06-2015,14:04:57
12014,2,3,4,7,Recall,,1,9,9,,4,4,8,21,8,13,1,,10-06-2015,14:04:57
12014,2,3,4,8,Recall,,1,15,15,,4,4,8,21,8,13,1,,10-06-2015,14:04:57
12014,2,4,7,1,ProcessingTask,1646,1,FALSE,FALSE,6,7,3,8,21,8,13,1,,10-06-2015,14:04:57
12014,2,4,7,2,ProcessingTask,483,1,TRUE,TRUE,3,7,3,8,21,8,13,1,,10-06-2015,14:04:57
12014,2,4,7,3,ProcessingTask,545,1,TRUE,TRUE,16,7,3,8,21,8,13,1,,10-06-2015,14:04:57
12014,2,4,7,4,ProcessingTask,1979,1,TRUE,TRUE,4,7,3,8,21,8,13,1,,10-06-2015,14:04:57
12014,2,4,7,5,ProcessingTask,726,1,FALSE,FALSE,8,7,3,8,21,8,13,1,,10-06-2015,14:04:57
12014,2,4,7,6,ProcessingTask,620,1,FALSE,FALSE,15,7,3,8,21,8,13,1,,10-06-2015,14:04:57
12014,2,4,7,7,ProcessingTask,2424,1,FALSE,FALSE,5,7,3,8,21,8,13,1,,10-06-2015,14:04:57
12014,2,4,7,8,Recall,,1,6,6,,7,3,8,21,8,13,1,,10-06-2015,14:04:57
12014,2,4,7,9,Recall,,1,3,3,,7,3,8,21,8,13,1,,10-06-2015,14:04:57
12014,2,4,7,10,Recall,,0,5,16,,7,3,8,21,8,13,1,,10-06-2015,14:04:57
12014,2,4,7,11,Recall,,0,16,4,,7,3,8,21,8,13,1,,10-06-2015,14:04:57
12014,2,4,7,12,Recall,,0,11,8,,7,3,8,21,8,13,1,,10-06-2015,14:04:57
12014,2,4,7,13,Recall,,1,15,15,,7,3,8,21,8,13,1,,10-06-2015,14:04:57
12014,2,4,7,14,Recall,,,,5,,7,3,8,21,8,13,1,,10-06-2015,14:04:57
12014,2,5,5,1,ProcessingTask,900,1,TRUE,TRUE,1,5,1,8,21,8,13,1,,10-06-2015,14:04:57
12014,2,5,5,2,ProcessingTask,1334,1,FALSE,FALSE,2,5,1,8,21,8,13,1,,10-06-2015,14:04:57
12014,2,5,5,3,ProcessingTask,1443,1,FALSE,FALSE,14,5,1,8,21,8,13,1,,10-06-2015,14:04:57
12014,2,5,5,4,ProcessingTask,612,1,FALSE,FALSE,4,5,1,8,21,8,13,1,,10-06-2015,14:04:57
12014,2,5,5,5,ProcessingTask,881,1,TRUE,TRUE,3,5,1,8,21,8,13,1,,10-06-2015,14:04:57
12014,2,5,5,6,Recall,,,,1,,5,1,8,21,8,13,1,,10-06-2015,14:04:57
12014,2,5,5,7,Recall,,0,1,2,,5,1,8,21,8,13,1,,10-06-2015,14:04:57
12014,2,5,5,8,Recall,,0,5,14,,5,1,8,21,8,13,1,,10-06-2015,14:04:57
12014,2,5,5,9,Recall,,1,4,4,,5,1,8,21,8,13,1,,10-06-2015,14:04:57
12014,2,5,5,10,Recall,,0,11,3,,5,1,8,21,8,13,1,,10-06-2015,14:04:57
12014,2,6,2,1,ProcessingTask,2291,1,FALSE,FALSE,5,2,2,8,21,8,13,1,,10-06-2015,14:04:57
12014,2,6,2,2,ProcessingTask,757,1,FALSE,FALSE,10,2,2,8,21,8,13,1,,10-06-2015,14:04:57
12014,2,6,2,3,Recall,,1,5,5,,2,2,8,21,8,13,1,,10-06-2015,14:04:57
12014,2,6,2,4,Recall,,1,10,10,,2,2,8,21,8,13,1,,10-06-2015,14:04:57
12016,1,1,6,1,ProcessingTask,1122,1,FALSE,FALSE,9,5,0,8,19,10,9,0.8920863309352518,,03-04-2015,12:07:08
12016,1,1,6,2,ProcessingTask,484,1,FALSE,FALSE,3,5,0,8,19,10,9,0.8920863309352518,,03-04-2015,12:07:08
12016,1,1,6,3,ProcessingTask,477,1,TRUE,TRUE,13,5,0,8,19,10,9,0.8920863309352518,,03-04-2015,12:07:08
12016,1,1,6,4,ProcessingTask,1980,1,FALSE,FALSE,15,5,0,8,19,10,9,0.8920863309352518,,03-04-2015,12:07:08
12016,1,1,6,5,ProcessingTask,455,0,TRUE,FALSE,5,5,0,8,19,10,9,0.8920863309352518,,03-04-2015,12:07:08
12016,1,1,6,6,ProcessingTask,450,1,TRUE,TRUE,10,5,0,8,19,10,9,0.8920863309352518,,03-04-2015,12:07:08
12016,1,1,6,7,Recall,,0,12,9,,5,0,8,19,10,9,0.8920863309352518,,03-04-2015,12:07:08
12016,1,1,6,8,Recall,,0,9,3,,5,0,8,19,10,9,0.8920863309352518,,03-04-2015,12:07:08
12016,1,1,6,9,Recall,,0,3,13,,5,0,8,19,10,9,0.8920863309352518,,03-04-2015,12:07:08
12016,1,1,6,10,Recall,,0,10,15,,5,0,8,19,10,9,0.8920863309352518,,03-04-2015,12:07:08
12016,1,1,6,11,Recall,,0,13,5,,5,0,8,19,10,9,0.8920863309352518,,03-04-2015,12:07:08
12016,1,1,6,12,Recall,,,,10,,5,0,8,19,10,9,0.8920863309352518,,03-04-2015,12:07:08
12016,1,2,4,1,ProcessingTask,1086,1,FALSE,FALSE,4,4,1,8,19,10,9,0.8920863309352518,,03-04-2015,12:07:08
12016,1,2,4,2,ProcessingTask,647,1,TRUE,TRUE,15,4,1,8,19,10,9,0.8920863309352518,,03-04-2015,12:07:08
12016,1,2,4,3,ProcessingTask,630,1,TRUE,TRUE,8,4,1,8,19,10,9,0.8920863309352518,,03-04-2015,12:07:08
12016,1,2,4,4,ProcessingTask,688,1,FALSE,FALSE,12,4,1,8,19,10,9,0.8920863309352518,,03-04-2015,12:07:08
12016,1,2,4,5,Recall,,1,4,4,,4,1,8,19,10,9,0.8920863309352518,,03-04-2015,12:07:08
12016,1,2,4,6,Recall,,,,15,,4,1,8,19,10,9,0.8920863309352518,,03-04-2015,12:07:08
12016,1,2,4,7,Recall,,,,8,,4,1,8,19,10,9,0.8920863309352518,,03-04-2015,12:07:08
12016,1,2,4,8,Recall,,0,5,12,,4,1,8,19,10,9,0.8920863309352518,,03-04-2015,12:07:08
12016,1,3,7,1,ProcessingTask,657,1,TRUE,TRUE,1,7,2,8,19,10,9,0.8920863309352518,,03-04-2015,12:07:08
12016,1,3,7,2,ProcessingTask,652,1,FALSE,FALSE,9,7,2,8,19,10,9,0.8920863309352518,,03-04-2015,12:07:08
12016,1,3,7,3,ProcessingTask,1112,1,FALSE,FALSE,7,7,2,8,19,10,9,0.8920863309352518,,03-04-2015,12:07:08
12016,1,3,7,4,ProcessingTask,2761,1,TRUE,TRUE,3,7,2,8,19,10,9,0.8920863309352518,,03-04-2015,12:07:08
12016,1,3,7,5,ProcessingTask,468,1,TRUE,TRUE,11,7,2,8,19,10,9,0.8920863309352518,,03-04-2015,12:07:08
12016,1,3,7,6,ProcessingTask,912,1,TRUE,TRUE,5,7,2,8,19,10,9,0.8920863309352518,,03-04-2015,12:07:08
12016,1,3,7,7,ProcessingTask,912,1,FALSE,FALSE,6,7,2,8,19,10,9,0.8920863309352518,,03-04-2015,12:07:08
12016,1,3,7,8,Recall,,1,1,1,,7,2,8,19,10,9,0.8920863309352518,,03-04-2015,12:07:08
12016,1,3,7,9,Recall,,1,9,9,,7,2,8,19,10,9,0.8920863309352518,,03-04-2015,12:07:08
12016,1,3,7,10,Recall,,0,15,7,,7,2,8,19,10,9,0.8920863309352518,,03-04-2015,12:07:08
12016,1,3,7,11,Recall,,,,3,,7,2,8,19,10,9,0.8920863309352518,,03-04-2015,12:07:08
12016,1,3,7,12,Recall,,,,11,,7,2,8,19,10,9,0.8920863309352518,,03-04-2015,12:07:08
12016,1,3,7,13,Recall,,0,11,5,,7,2,8,19,10,9,0.8920863309352518,,03-04-2015,12:07:08
12016,1,3,7,14,Recall,,0,13,6,,7,2,8,19,10,9,0.8920863309352518,,03-04-2015,12:07:08
12016,1,4,2,1,ProcessingTask,532,1,TRUE,TRUE,16,2,2,8,19,10,9,0.8920863309352518,,03-04-2015,12:07:08
12016,1,4,2,2,ProcessingTask,785,1,FALSE,FALSE,8,2,2,8,19,10,9,0.8920863309352518,,03-04-2015,12:07:08
12016,1,4,2,3,Recall,,1,16,16,,2,2,8,19,10,9,0.8920863309352518,,03-04-2015,12:07:08
12016,1,4,2,4,Recall,,1,8,8,,2,2,8,19,10,9,0.8920863309352518,,03-04-2015,12:07:08
12016,1,5,3,1,ProcessingTask,618,1,FALSE,FALSE,16,3,3,8,19,10,9,0.8920863309352518,,03-04-2015,12:07:08
12016,1,5,3,2,ProcessingTask,820,1,TRUE,TRUE,13,3,3,8,19,10,9,0.8920863309352518,,03-04-2015,12:07:08
12016,1,5,3,3,ProcessingTask,918,1,FALSE,FALSE,10,3,3,8,19,10,9,0.8920863309352518,,03-04-2015,12:07:08
12016,1,5,3,4,Recall,,1,16,16,,3,3,8,19,10,9,0.8920863309352518,,03-04-2015,12:07:08
12016,1,5,3,5,Recall,,1,13,13,,3,3,8,19,10,9,0.8920863309352518,,03-04-2015,12:07:08
12016,1,5,3,6,Recall,,1,10,10,,3,3,8,19,10,9,0.8920863309352518,,03-04-2015,12:07:08
12016,1,6,5,1,ProcessingTask,678,1,FALSE,FALSE,12,4,1,8,19,10,9,0.8920863309352518,,03-04-2015,12:07:08
12016,1,6,5,2,ProcessingTask,558,1,FALSE,FALSE,3,4,1,8,19,10,9,0.8920863309352518,,03-04-2015,12:07:08
12016,1,6,5,3,ProcessingTask,398,1,TRUE,TRUE,15,4,1,8,19,10,9,0.8920863309352518,,03-04-2015,12:07:08
12016,1,6,5,4,ProcessingTask,2236,0,TRUE,FALSE,10,4,1,8,19,10,9,0.8920863309352518,,03-04-2015,12:07:08
12016,1,6,5,5,ProcessingTask,1098,1,TRUE,TRUE,7,4,1,8,19,10,9,0.8920863309352518,,03-04-2015,12:07:08
12016,1,6,5,6,Recall,,1,12,12,,4,1,8,19,10,9,0.8920863309352518,,03-04-2015,12:07:08
12016,1,6,5,7,Recall,,0,10,3,,4,1,8,19,10,9,0.8920863309352518,,03-04-2015,12:07:08
12016,1,6,5,8,Recall,,0,11,15,,4,1,8,19,10,9,0.8920863309352518,,03-04-2015,12:07:08
12016,1,6,5,9,Recall,,0,15,10,,4,1,8,19,10,9,0.8920863309352518,,03-04-2015,12:07:08
12016,1,6,5,10,Recall,,,,7,,4,1,8,19,10,9,0.8920863309352518,,03-04-2015,12:07:08
12016,2,1,2,1,ProcessingTask,704,1,FALSE,FALSE,5,2,1,8,19,10,9,0.8920863309352518,,03-04-2015,12:07:08
12016,2,1,2,2,ProcessingTask,2022,1,FALSE,FALSE,10,2,1,8,19,10,9,0.8920863309352518,,03-04-2015,12:07:08
12016,2,1,2,3,Recall,,0,12,5,,2,1,8,19,10,9,0.8920863309352518,,03-04-2015,12:07:08
12016,2,1,2,4,Recall,,1,10,10,,2,1,8,19,10,9,0.8920863309352518,,03-04-2015,12:07:08
12016,2,2,4,1,ProcessingTask,401,1,TRUE,TRUE,14,4,2,8,19,10,9,0.8920863309352518,,03-04-2015,12:07:08
12016,2,2,4,2,ProcessingTask,393,1,TRUE,TRUE,13,4,2,8,19,10,9,0.8920863309352518,,03-04-2015,12:07:08
12016,2,2,4,3,ProcessingTask,458,1,TRUE,TRUE,7,4,2,8,19,10,9,0.8920863309352518,,03-04-2015,12:07:08
12016,2,2,4,4,ProcessingTask,1797,1,FALSE,FALSE,12,4,2,8,19,10,9,0.8920863309352518,,03-04-2015,12:07:08
12016,2,2,4,5,Recall,,0,15,14,,4,2,8,19,10,9,0.8920863309352518,,03-04-2015,12:07:08
12016,2,2,4,6,Recall,,1,13,13,,4,2,8,19,10,9,0.8920863309352518,,03-04-2015,12:07:08
12016,2,2,4,7,Recall,,,,7,,4,2,8,19,10,9,0.8920863309352518,,03-04-2015,12:07:08
12016,2,2,4,8,Recall,,1,12,12,,4,2,8,19,10,9,0.8920863309352518,,03-04-2015,12:07:08
12016,2,3,3,1,ProcessingTask,485,1,TRUE,TRUE,15,3,3,8,19,10,9,0.8920863309352518,,03-04-2015,12:07:08
12016,2,3,3,2,ProcessingTask,1169,1,TRUE,TRUE,8,3,3,8,19,10,9,0.8920863309352518,,03-04-2015,12:07:08
12016,2,3,3,3,ProcessingTask,589,1,TRUE,TRUE,6,3,3,8,19,10,9,0.8920863309352518,,03-04-2015,12:07:08
12016,2,3,3,4,Recall,,1,15,15,,3,3,8,19,10,9,0.8920863309352518,,03-04-2015,12:07:08
12016,2,3,3,5,Recall,,1,8,8,,3,3,8,19,10,9,0.8920863309352518,,03-04-2015,12:07:08
12016,2,3,3,6,Recall,,1,6,6,,3,3,8,19,10,9,0.8920863309352518,,03-04-2015,12:07:08
12016,2,4,7,1,ProcessingTask,455,1,TRUE,TRUE,11,6,1,8,19,10,9,0.8920863309352518,,03-04-2015,12:07:08
12016,2,4,7,2,ProcessingTask,969,1,FALSE,FALSE,2,6,1,8,19,10,9,0.8920863309352518,,03-04-2015,12:07:08
12016,2,4,7,3,ProcessingTask,394,1,TRUE,TRUE,12,6,1,8,19,10,9,0.8920863309352518,,03-04-2015,12:07:08
12016,2,4,7,4,ProcessingTask,1348,1,FALSE,FALSE,6,6,1,8,19,10,9,0.8920863309352518,,03-04-2015,12:07:08
12016,2,4,7,5,ProcessingTask,462,0,TRUE,FALSE,4,6,1,8,19,10,9,0.8920863309352518,,03-04-2015,12:07:08
12016,2,4,7,6,ProcessingTask,402,1,TRUE,TRUE,13,6,1,8,19,10,9,0.8920863309352518,,03-04-2015,12:07:08
12016,2,4,7,7,ProcessingTask,439,1,TRUE,TRUE,10,6,1,8,19,10,9,0.8920863309352518,,03-04-2015,12:07:08
12016,2,4,7,8,Recall,,0,15,11,,6,1,8,19,10,9,0.8920863309352518,,03-04-2015,12:07:08
12016,2,4,7,9,Recall,,0,11,2,,6,1,8,19,10,9,0.8920863309352518,,03-04-2015,12:07:08
12016,2,4,7,10,Recall,,1,12,12,,6,1,8,19,10,9,0.8920863309352518,,03-04-2015,12:07:08
12016,2,4,7,11,Recall,,0,13,6,,6,1,8,19,10,9,0.8920863309352518,,03-04-2015,12:07:08
12016,2,4,7,12,Recall,,0,15,4,,6,1,8,19,10,9,0.8920863309352518,,03-04-2015,12:07:08
12016,2,4,7,13,Recall,,,,13,,6,1,8,19,10,9,0.8920863309352518,,03-04-2015,12:07:08
12016,2,4,7,14,Recall,,,,10,,6,1,8,19,10,9,0.8920863309352518,,03-04-2015,12:07:08
12016,2,5,6,1,ProcessingTask,647,1,FALSE,FALSE,13,4,0,8,19,10,9,0.8920863309352518,,03-04-2015,12:07:08
12016,2,5,6,2,ProcessingTask,472,1,TRUE,TRUE,10,4,0,8,19,10,9,0.8920863309352518,,03-04-2015,12:07:08
12016,2,5,6,3,ProcessingTask,587,1,TRUE,TRUE,16,4,0,8,19,10,9,0.8920863309352518,,03-04-2015,12:07:08
12016,2,5,6,4,ProcessingTask,771,0,TRUE,FALSE,5,4,0,8,19,10,9,0.8920863309352518,,03-04-2015,12:07:08
12016,2,5,6,5,ProcessingTask,2038,0,TRUE,FALSE,15,4,0,8,19,10,9,0.8920863309352518,,03-04-2015,12:07:08
12016,2,5,6,6,ProcessingTask,503,1,FALSE,FALSE,11,4,0,8,19,10,9,0.8920863309352518,,03-04-2015,12:07:08
12016,2,5,6,7,Recall,,0,15,13,,4,0,8,19,10,9,0.8920863309352518,,03-04-2015,12:07:08
12016,2,5,6,8,Recall,,0,16,10,,4,0,8,19,10,9,0.8920863309352518,,03-04-2015,12:07:08
12016,2,5,6,9,Recall,,0,10,16,,4,0,8,19,10,9,0.8920863309352518,,03-04-2015,12:07:08
12016,2,5,6,10,Recall,,,,5,,4,0,8,19,10,9,0.8920863309352518,,03-04-2015,12:07:08
12016,2,5,6,11,Recall,,0,11,15,,4,0,8,19,10,9,0.8920863309352518,,03-04-2015,12:07:08
12016,2,5,6,12,Recall,,,,11,,4,0,8,19,10,9,0.8920863309352518,,03-04-2015,12:07:08
12016,2,6,5,1,ProcessingTask,762,1,TRUE,TRUE,13,5,2,8,19,10,9,0.8920863309352518,,03-04-2015,12:07:08
12016,2,6,5,2,ProcessingTask,552,1,TRUE,TRUE,2,5,2,8,19,10,9,0.8920863309352518,,03-04-2015,12:07:08
12016,2,6,5,3,ProcessingTask,537,1,TRUE,TRUE,6,5,2,8,19,10,9,0.8920863309352518,,03-04-2015,12:07:08
12016,2,6,5,4,ProcessingTask,786,1,TRUE,TRUE,16,5,2,8,19,10,9,0.8920863309352518,,03-04-2015,12:07:08
12016,2,6,5,5,ProcessingTask,520,1,FALSE,FALSE,10,5,2,8,19,10,9,0.8920863309352518,,03-04-2015,12:07:08
12016,2,6,5,6,Recall,,1,13,13,,5,2,8,19,10,9,0.8920863309352518,,03-04-2015,12:07:08
12016,2,6,5,7,Recall,,,,2,,5,2,8,19,10,9,0.8920863309352518,,03-04-2015,12:07:08
12016,2,6,5,8,Recall,,0,8,6,,5,2,8,19,10,9,0.8920863309352518,,03-04-2015,12:07:08
12016,2,6,5,9,Recall,,0,2,16,,5,2,8,19,10,9,0.8920863309352518,,03-04-2015,12:07:08
12016,2,6,5,10,Recall,,1,10,10,,5,2,8,19,10,9,0.8920863309352518,,03-04-2015,12:07:08
12018,1,1,4,1,ProcessingTask,528,1,FALSE,FALSE,12,3,4,23,36,19,17,0.9280575539568345,,04-09-2015,11:08:34
12018,1,1,4,2,ProcessingTask,469,0,FALSE,TRUE,3,3,4,23,36,19,17,0.9280575539568345,,04-09-2015,11:08:34
12018,1,1,4,3,ProcessingTask,581,1,TRUE,TRUE,11,3,4,23,36,19,17,0.9280575539568345,,04-09-2015,11:08:34
12018,1,1,4,4,ProcessingTask,2061,1,FALSE,FALSE,9,3,4,23,36,19,17,0.9280575539568345,,04-09-2015,11:08:34
12018,1,1,4,5,Recall,,1,12,12,,3,4,23,36,19,17,0.9280575539568345,,04-09-2015,11:08:34
12018,1,1,4,6,Recall,,1,3,3,,3,4,23,36,19,17,0.9280575539568345,,04-09-2015,11:08:34
12018,1,1,4,7,Recall,,1,11,11,,3,4,23,36,19,17,0.9280575539568345,,04-09-2015,11:08:34
12018,1,1,4,8,Recall,,1,9,9,,3,4,23,36,19,17,0.9280575539568345,,04-09-2015,11:08:34
12018,1,2,2,1,ProcessingTask,1199,1,FALSE,FALSE,15,2,2,23,36,19,17,0.9280575539568345,,04-09-2015,11:08:34
12018,1,2,2,2,ProcessingTask,526,1,FALSE,FALSE,16,2,2,23,36,19,17,0.9280575539568345,,04-09-2015,11:08:34
12018,1,2,2,3,Recall,,1,15,15,,2,2,23,36,19,17,0.9280575539568345,,04-09-2015,11:08:34
12018,1,2,2,4,Recall,,1,16,16,,2,2,23,36,19,17,0.9280575539568345,,04-09-2015,11:08:34
12018,1,3,6,1,ProcessingTask,562,1,FALSE,FALSE,16,6,0,23,36,19,17,0.9280575539568345,,04-09-2015,11:08:34
12018,1,3,6,2,ProcessingTask,2100,1,TRUE,TRUE,5,6,0,23,36,19,17,0.9280575539568345,,04-09-2015,11:08:34
12018,1,3,6,3,ProcessingTask,447,1,FALSE,FALSE,2,6,0,23,36,19,17,0.9280575539568345,,04-09-2015,11:08:34
12018,1,3,6,4,ProcessingTask,1489,1,FALSE,FALSE,13,6,0,23,36,19,17,0.9280575539568345,,04-09-2015,11:08:34
12018,1,3,6,5,ProcessingTask,447,1,FALSE,FALSE,1,6,0,23,36,19,17,0.9280575539568345,,04-09-2015,11:08:34
12018,1,3,6,6,ProcessingTask,553,1,TRUE,TRUE,14,6,0,23,36,19,17,0.9280575539568345,,04-09-2015,11:08:34
12018,1,3,6,7,Recall,,,,16,,6,0,23,36,19,17,0.9280575539568345,,04-09-2015,11:08:34
12018,1,3,6,8,Recall,,0,2,5,,6,0,23,36,19,17,0.9280575539568345,,04-09-2015,11:08:34
12018,1,3,6,9,Recall,,0,3,2,,6,0,23,36,19,17,0.9280575539568345,,04-09-2015,11:08:34
12018,1,3,6,10,Recall,,0,14,13,,6,0,23,36,19,17,0.9280575539568345,,04-09-2015,11:08:34
12018,1,3,6,11,Recall,,0,13,1,,6,0,23,36,19,17,0.9280575539568345,,04-09-2015,11:08:34
12018,1,3,6,12,Recall,,,,14,,6,0,23,36,19,17,0.9280575539568345,,04-09-2015,11:08:34
12018,1,4,5,1,ProcessingTask,578,1,FALSE,FALSE,2,5,4,23,36,19,17,0.9280575539568345,,04-09-2015,11:08:34
12018,1,4,5,2,ProcessingTask,318,1,TRUE,TRUE,11,5,4,23,36,19,17,0.9280575539568345,,04-09-2015,11:08:34
12018,1,4,5,3,ProcessingTask,915,1,TRUE,TRUE,3,5,4,23,36,19,17,0.9280575539568345,,04-09-2015,11:08:34
12018,1,4,5,4,ProcessingTask,418,1,TRUE,TRUE,12,5,4,23,36,19,17,0.9280575539568345,,04-09-2015,11:08:34
12018,1,4,5,5,ProcessingTask,2492,1,TRUE,TRUE,13,5,4,23,36,19,17,0.9280575539568345,,04-09-2015,11:08:34
12018,1,4,5,6,Recall,,0,10,2,,5,4,23,36,19,17,0.9280575539568345,,04-09-2015,11:08:34
12018,1,4,5,7,Recall,,1,11,11,,5,4,23,36,19,17,0.9280575539568345,,04-09-2015,11:08:34
12018,1,4,5,8,Recall,,1,3,3,,5,4,23,36,19,17,0.9280575539568345,,04-09-2015,11:08:34
12018,1,4,5,9,Recall,,1,12,12,,5,4,23,36,19,17,0.9280575539568345,,04-09-2015,11:08:34
12018,1,4,5,10,Recall,,1,13,13,,5,4,23,36,19,17,0.9280575539568345,,04-09-2015,11:08:34
12018,1,5,3,1,ProcessingTask,1514,1,FALSE,FALSE,16,3,3,23,36,19,17,0.9280575539568345,,04-09-2015,11:08:34
12018,1,5,3,2,ProcessingTask,389,1,FALSE,FALSE,4,3,3,23,36,19,17,0.9280575539568345,,04-09-2015,11:08:34
12018,1,5,3,3,ProcessingTask,699,1,TRUE,TRUE,13,3,3,23,36,19,17,0.9280575539568345,,04-09-2015,11:08:34
12018,1,5,3,4,Recall,,1,16,16,,3,3,23,36,19,17,0.9280575539568345,,04-09-2015,11:08:34
12018,1,5,3,5,Recall,,1,4,4,,3,3,23,36,19,17,0.9280575539568345,,04-09-2015,11:08:34
12018,1,5,3,6,Recall,,1,13,13,,3,3,23,36,19,17,0.9280575539568345,,04-09-2015,11:08:34
12018,1,6,7,1,ProcessingTask,548,1,TRUE,TRUE,14,7,5,23,36,19,17,0.9280575539568345,,04-09-2015,11:08:34
12018,1,6,7,2,ProcessingTask,469,1,TRUE,TRUE,7,7,5,23,36,19,17,0.9280575539568345,,04-09-2015,11:08:34
12018,1,6,7,3,ProcessingTask,369,1,TRUE,TRUE,9,7,5,23,36,19,17,0.9280575539568345,,04-09-2015,11:08:34
12018,1,6,7,4,ProcessingTask,780,1,TRUE,TRUE,4,7,5,23,36,19,17,0.9280575539568345,,04-09-2015,11:08:34
12018,1,6,7,5,ProcessingTask,726,1,FALSE,FALSE,13,7,5,23,36,19,17,0.9280575539568345,,04-09-2015,11:08:34
12018,1,6,7,6,ProcessingTask,447,1,TRUE,TRUE,2,7,5,23,36,19,17,0.9280575539568345,,04-09-2015,11:08:34
12018,1,6,7,7,ProcessingTask,1498,1,FALSE,FALSE,5,7,5,23,36,19,17,0.9280575539568345,,04-09-2015,11:08:34
12018,1,6,7,8,Recall,,1,14,14,,7,5,23,36,19,17,0.9280575539568345,,04-09-2015,11:08:34
12018,1,6,7,9,Recall,,1,7,7,,7,5,23,36,19,17,0.9280575539568345,,04-09-2015,11:08:34
12018,1,6,7,10,Recall,,1,9,9,,7,5,23,36,19,17,0.9280575539568345,,04-09-2015,11:08:34
12018,1,6,7,11,Recall,,1,4,4,,7,5,23,36,19,17,0.9280575539568345,,04-09-2015,11:08:34
12018,1,6,7,12,Recall,,0,15,13,,7,5,23,36,19,17,0.9280575539568345,,04-09-2015,11:08:34
12018,1,6,7,13,Recall,,1,2,2,,7,5,23,36,19,17,0.9280575539568345,,04-09-2015,11:08:34
12018,1,6,7,14,Recall,,0,8,5,,7,5,23,36,19,17,0.9280575539568345,,04-09-2015,11:08:34
12018,2,1,2,1,ProcessingTask,474,1,FALSE,FALSE,10,2,2,23,36,19,17,0.9280575539568345,,04-09-2015,11:08:34
12018,2,1,2,2,ProcessingTask,522,1,TRUE,TRUE,13,2,2,23,36,19,17,0.9280575539568345,,04-09-2015,11:08:34
12018,2,1,2,3,Recall,,1,10,10,,2,2,23,36,19,17,0.9280575539568345,,04-09-2015,11:08:34
12018,2,1,2,4,Recall,,1,13,13,,2,2,23,36,19,17,0.9280575539568345,,04-09-2015,11:08:34
12018,2,2,3,1,ProcessingTask,1294,1,TRUE,TRUE,14,3,3,23,36,19,17,0.9280575539568345,,04-09-2015,11:08:34
12018,2,2,3,2,ProcessingTask,274,1,TRUE,TRUE,10,3,3,23,36,19,17,0.9280575539568345,,04-09-2015,11:08:34
12018,2,2,3,3,ProcessingTask,1006,1,FALSE,FALSE,6,3,3,23,36,19,17,0.9280575539568345,,04-09-2015,11:08:34
12018,2,2,3,4,Recall,,1,14,14,,3,3,23,36,19,17,0.9280575539568345,,04-09-2015,11:08:34
12018,2,2,3,5,Recall,,1,10,10,,3,3,23,36,19,17,0.9280575539568345,,04-09-2015,11:08:34
12018,2,2,3,6,Recall,,1,6,6,,3,3,23,36,19,17,0.9280575539568345,,04-09-2015,11:08:34
12018,2,3,5,1,ProcessingTask,1983,1,FALSE,FALSE,13,5,5,23,36,19,17,0.9280575539568345,,04-09-2015,11:08:34
12018,2,3,5,2,ProcessingTask,1410,1,FALSE,FALSE,7,5,5,23,36,19,17,0.9280575539568345,,04-09-2015,11:08:34
12018,2,3,5,3,ProcessingTask,401,1,TRUE,TRUE,15,5,5,23,36,19,17,0.9280575539568345,,04-09-2015,11:08:34
12018,2,3,5,4,ProcessingTask,359,1,TRUE,TRUE,16,5,5,23,36,19,17,0.9280575539568345,,04-09-2015,11:08:34
12018,2,3,5,5,ProcessingTask,1582,1,FALSE,FALSE,14,5,5,23,36,19,17,0.9280575539568345,,04-09-2015,11:08:34
12018,2,3,5,6,Recall,,1,13,13,,5,5,23,36,19,17,0.9280575539568345,,04-09-2015,11:08:34
12018,2,3,5,7,Recall,,1,7,7,,5,5,23,36,19,17,0.9280575539568345,,04-09-2015,11:08:34
12018,2,3,5,8,Recall,,1,15,15,,5,5,23,36,19,17,0.9280575539568345,,04-09-2015,11:08:34
12018,2,3,5,9,Recall,,1,16,16,,5,5,23,36,19,17,0.9280575539568345,,04-09-2015,11:08:34
12018,2,3,5,10,Recall,,1,14,14,,5,5,23,36,19,17,0.9280575539568345,,04-09-2015,11:08:34
12018,2,4,4,1,ProcessingTask,1038,0,FALSE,TRUE,7,3,4,23,36,19,17,0.9280575539568345,,04-09-2015,11:08:34
12018,2,4,4,2,ProcessingTask,532,1,FALSE,FALSE,8,3,4,23,36,19,17,0.9280575539568345,,04-09-2015,11:08:34
12018,2,4,4,3,ProcessingTask,496,1,TRUE,TRUE,3,3,4,23,36,19,17,0.9280575539568345,,04-09-2015,11:08:34
12018,2,4,4,4,ProcessingTask,711,1,FALSE,FALSE,10,3,4,23,36,19,17,0.9280575539568345,,04-09-2015,11:08:34
12018,2,4,4,5,Recall,,1,7,7,,3,4,23,36,19,17,0.9280575539568345,,04-09-2015,11:08:34
12018,2,4,4,6,Recall,,1,8,8,,3,4,23,36,19,17,0.9280575539568345,,04-09-2015,11:08:34
12018,2,4,4,7,Recall,,1,3,3,,3,4,23,36,19,17,0.9280575539568345,,04-09-2015,11:08:34
12018,2,4,4,8,Recall,,1,10,10,,3,4,23,36,19,17,0.9280575539568345,,04-09-2015,11:08:34
12018,2,5,7,1,ProcessingTask,1453,1,TRUE,TRUE,16,7,1,23,36,19,17,0.9280575539568345,,04-09-2015,11:08:34
12018,2,5,7,2,ProcessingTask,425,1,TRUE,TRUE,15,7,1,23,36,19,17,0.9280575539568345,,04-09-2015,11:08:34
12018,2,5,7,3,ProcessingTask,923,1,TRUE,TRUE,6,7,1,23,36,19,17,0.9280575539568345,,04-09-2015,11:08:34
12018,2,5,7,4,ProcessingTask,590,1,FALSE,FALSE,8,7,1,23,36,19,17,0.9280575539568345,,04-09-2015,11:08:34
12018,2,5,7,5,ProcessingTask,1082,1,FALSE,FALSE,5,7,1,23,36,19,17,0.9280575539568345,,04-09-2015,11:08:34
12018,2,5,7,6,ProcessingTask,1017,1,FALSE,FALSE,4,7,1,23,36,19,17,0.9280575539568345,,04-09-2015,11:08:34
12018,2,5,7,7,ProcessingTask,564,1,TRUE,TRUE,13,7,1,23,36,19,17,0.9280575539568345,,04-09-2015,11:08:34
12018,2,5,7,8,Recall,,1,16,16,,7,1,23,36,19,17,0.9280575539568345,,04-09-2015,11:08:34
12018,2,5,7,9,Recall,,0,8,15,,7,1,23,36,19,17,0.9280575539568345,,04-09-2015,11:08:34
12018,2,5,7,10,Recall,,0,15,6,,7,1,23,36,19,17,0.9280575539568345,,04-09-2015,11:08:34
12018,2,5,7,11,Recall,,0,5,8,,7,1,23,36,19,17,0.9280575539568345,,04-09-2015,11:08:34
12018,2,5,7,12,Recall,,0,12,5,,7,1,23,36,19,17,0.9280575539568345,,04-09-2015,11:08:34
12018,2,5,7,13,Recall,,0,13,4,,7,1,23,36,19,17,0.9280575539568345,,04-09-2015,11:08:34
12018,2,5,7,14,Recall,,,,13,,7,1,23,36,19,17,0.9280575539568345,,04-09-2015,11:08:34
12018,2,6,6,1,ProcessingTask,369,1,TRUE,TRUE,7,4,2,23,36,19,17,0.9280575539568345,,04-09-2015,11:08:34
12018,2,6,6,2,ProcessingTask,627,1,FALSE,FALSE,10,4,2,23,36,19,17,0.9280575539568345,,04-09-2015,11:08:34
12018,2,6,6,3,ProcessingTask,1161,0,TRUE,FALSE,1,4,2,23,36,19,17,0.9280575539568345,,04-09-2015,11:08:34
12018,2,6,6,4,ProcessingTask,811,1,FALSE,FALSE,16,4,2,23,36,19,17,0.9280575539568345,,04-09-2015,11:08:34
12018,2,6,6,5,ProcessingTask,3789,0,TRUE,FALSE,13,4,2,23,36,19,17,0.9280575539568345,,04-09-2015,11:08:34
12018,2,6,6,6,ProcessingTask,514,1,FALSE,FALSE,8,4,2,23,36,19,17,0.9280575539568345,,04-09-2015,11:08:34
12018,2,6,6,7,Recall,,0,8,7,,4,2,23,36,19,17,0.9280575539568345,,04-09-2015,11:08:34
12018,2,6,6,8,Recall,,0,9,10,,4,2,23,36,19,17,0.9280575539568345,,04-09-2015,11:08:34
12018,2,6,6,9,Recall,,0,12,1,,4,2,23,36,19,17,0.9280575539568345,,04-09-2015,11:08:34
12018,2,6,6,10,Recall,,1,16,16,,4,2,23,36,19,17,0.9280575539568345,,04-09-2015,11:08:34
12018,2,6,6,11,Recall,,1,13,13,,4,2,23,36,19,17,0.9280575539568345,,04-09-2015,11:08:34
12018,2,6,6,12,Recall,,0,7,8,,4,2,23,36,19,17,0.9280575539568345,,04-09-2015,11:08:34
12021,1,1,4,1,ProcessingTask,746,1,FALSE,FALSE,3,4,4,29,42,20,22,0.9784172661870504,,03-10-2015,14:58:20
12021,1,1,4,2,ProcessingTask,1640,1,FALSE,FALSE,10,4,4,29,42,20,22,0.9784172661870504,,03-10-2015,14:58:20
12021,1,1,4,3,ProcessingTask,562,1,TRUE,TRUE,8,4,4,29,42,20,22,0.9784172661870504,,03-10-2015,14:58:20
12021,1,1,4,4,ProcessingTask,736,1,TRUE,TRUE,5,4,4,29,42,20,22,0.9784172661870504,,03-10-2015,14:58:20
12021,1,1,4,5,Recall,,1,3,3,,4,4,29,42,20,22,0.9784172661870504,,03-10-2015,14:58:20
12021,1,1,4,6,Recall,,1,10,10,,4,4,29,42,20,22,0.9784172661870504,,03-10-2015,14:58:20
12021,1,1,4,7,Recall,,1,8,8,,4,4,29,42,20,22,0.9784172661870504,,03-10-2015,14:58:20
12021,1,1,4,8,Recall,,1,5,5,,4,4,29,42,20,22,0.9784172661870504,,03-10-2015,14:58:20
12021,1,2,3,1,ProcessingTask,964,1,FALSE,FALSE,6,3,3,29,42,20,22,0.9784172661870504,,03-10-2015,14:58:20
12021,1,2,3,2,ProcessingTask,595,1,FALSE,FALSE,4,3,3,29,42,20,22,0.9784172661870504,,03-10-2015,14:58:20
12021,1,2,3,3,ProcessingTask,718,1,TRUE,TRUE,10,3,3,29,42,20,22,0.9784172661870504,,03-10-2015,14:58:20
12021,1,2,3,4,Recall,,1,6,6,,3,3,29,42,20,22,0.9784172661870504,,03-10-2015,14:58:20
12021,1,2,3,5,Recall,,1,4,4,,3,3,29,42,20,22,0.9784172661870504,,03-10-2015,14:58:20
12021,1,2,3,6,Recall,,1,10,10,,3,3,29,42,20,22,0.9784172661870504,,03-10-2015,14:58:20
12021,1,3,5,1,ProcessingTask,581,1,FALSE,FALSE,1,5,3,29,42,20,22,0.9784172661870504,,03-10-2015,14:58:20
12021,1,3,5,2,ProcessingTask,615,1,TRUE,TRUE,6,5,3,29,42,20,22,0.9784172661870504,,03-10-2015,14:58:20
12021,1,3,5,3,ProcessingTask,682,1,TRUE,TRUE,4,5,3,29,42,20,22,0.9784172661870504,,03-10-2015,14:58:20
12021,1,3,5,4,ProcessingTask,622,1,TRUE,TRUE,11,5,3,29,42,20,22,0.9784172661870504,,03-10-2015,14:58:20
12021,1,3,5,5,ProcessingTask,508,1,FALSE,FALSE,10,5,3,29,42,20,22,0.9784172661870504,,03-10-2015,14:58:20
12021,1,3,5,6,Recall,,1,1,1,,5,3,29,42,20,22,0.9784172661870504,,03-10-2015,14:58:20
12021,1,3,5,7,Recall,,1,6,6,,5,3,29,42,20,22,0.9784172661870504,,03-10-2015,14:58:20
12021,1,3,5,8,Recall,,1,4,4,,5,3,29,42,20,22,0.9784172661870504,,03-10-2015,14:58:20
12021,1,3,5,9,Recall,,0,13,11,,5,3,29,42,20,22,0.9784172661870504,,03-10-2015,14:58:20
12021,1,3,5,10,Recall,,0,11,10,,5,3,29,42,20,22,0.9784172661870504,,03-10-2015,14:58:20
12021,1,4,6,1,ProcessingTask,621,1,FALSE,FALSE,9,6,2,29,42,20,22,0.9784172661870504,,03-10-2015,14:58:20
12021,1,4,6,2,ProcessingTask,535,1,FALSE,FALSE,3,6,2,29,42,20,22,0.9784172661870504,,03-10-2015,14:58:20
12021,1,4,6,3,ProcessingTask,588,1,FALSE,FALSE,16,6,2,29,42,20,22,0.9784172661870504,,03-10-2015,14:58:20
12021,1,4,6,4,ProcessingTask,568,1,FALSE,FALSE,12,6,2,29,42,20,22,0.9784172661870504,,03-10-2015,14:58:20
12021,1,4,6,5,ProcessingTask,524,1,TRUE,TRUE,1,6,2,29,42,20,22,0.9784172661870504,,03-10-2015,14:58:20
12021,1,4,6,6,ProcessingTask,506,1,FALSE,FALSE,14,6,2,29,42,20,22,0.9784172661870504,,03-10-2015,14:58:20
12021,1,4,6,7,Recall,,1,9,9,,6,2,29,42,20,22,0.9784172661870504,,03-10-2015,14:58:20
12021,1,4,6,8,Recall,,0,5,3,,6,2,29,42,20,22,0.9784172661870504,,03-10-2015,14:58:20
12021,1,4,6,9,Recall,,1,16,16,,6,2,29,42,20,22,0.9784172661870504,,03-10-2015,14:58:20
12021,1,4,6,10,Recall,,0,14,12,,6,2,29,42,20,22,0.9784172661870504,,03-10-2015,14:58:20
