Subject,TrialProc,Trial,Condition,RT,Accuracy,Response,Word,Hue,SessionDate,SessionTime
12000,practice,1,congruent,541,1,RED,RED,red,02-24-2015,11:38:53
12000,practice,2,incongruent,1007,1,GREEN,BLUE,green,02-24-2015,11:38:53
12000,practice,3,congruent,519,1,RED,RED,red,02-24-2015,11:38:53
12000,practice,4,congruent,763,1,BLUE,BLUE,blue,02-24-2015,11:38:53
12000,practice,5,congruent,526,1,BLUE,BLUE,blue,02-24-2015,11:38:53
12000,practice,6,incongruent,825,1,RED,GREEN,red,02-24-2015,11:38:53
12000,practice,7,incongruent,528,1,GREEN,RED,green,02-24-2015,11:38:53
12000,practice,8,congruent,491,1,BLUE,BLUE,blue,02-24-2015,11:38:53
12000,practice,9,congruent,416,1,BLUE,BLUE,blue,02-24-2015,11:38:53
12000,practice,10,congruent,511,1,GREEN,GREEN,green,02-24-2015,11:38:53
12000,practice,11,congruent,499,1,GREEN,GREEN,green,02-24-2015,11:38:53
12000,practice,12,incongruent,792,0,RED,RED,blue,02-24-2015,11:38:53
12000,practice,13,incongruent,544,1,BLUE,GREEN,blue,02-24-2015,11:38:53
12000,practice,14,congruent,570,1,GREEN,GREEN,green,02-24-2015,11:38:53
12000,practice,15,congruent,603,1,RED,RED,red,02-24-2015,11:38:53
12000,practice,16,congruent,500,1,RED,RED,red,02-24-2015,11:38:53
12000,practice,17,congruent,568,1,GREEN,GREEN,green,02-24-2015,11:38:53
12000,practice,18,incongruent,721,1,RED,BLUE,red,02-24-2015,11:38:53
12000,real,1,congruent,653,1,BLUE,BLUE,blue,02-24-2015,11:38:53
12000,real,2,congruent,514,1,GREEN,GREEN,green,02-24-2015,11:38:53
12000,real,3,congruent,423,1,GREEN,GREEN,green,02-24-2015,11:38:53
12000,real,4,congruent,582,1,RED,RED,red,02-24-2015,11:38:53
12000,real,5,congruent,407,1,RED,RED,red,02-24-2015,11:38:53
12000,real,6,congruent,479,1,RED,RED,red,02-24-2015,11:38:53
12000,real,7,incongruent,837,1,GREEN,BLUE,green,02-24-2015,11:38:53
12000,real,8,congruent,516,1,RED,RED,red,02-24-2015,11:38:53
12000,real,9,incongruent,719,1,RED,BLUE,red,02-24-2015,11:38:53
12000,real,10,incongruent,641,1,RED,BLUE,red,02-24-2015,11:38:53
12000,real,11,incongruent,584,1,GREEN,RED,green,02-24-2015,11:38:53
12000,real,12,incongruent,665,1,GREEN,RED,green,02-24-2015,11:38:53
12000,real,13,incongruent,719,1,BLUE,GREEN,blue,02-24-2015,11:38:53
12000,real,14,congruent,707,1,BLUE,BLUE,blue,02-24-2015,11:38:53
12000,real,15,congruent,574,1,BLUE,BLUE,blue,02-24-2015,11:38:53
12000,real,16,congruent,575,1,BLUE,BLUE,blue,02-24-2015,11:38:53
12000,real,17,incongruent,857,1,GREEN,BLUE,green,02-24-2015,11:38:53
12000,real,18,congruent,760,1,RED,RED,red,02-24-2015,11:38:53
12000,real,19,congruent,657,1,GREEN,GREEN,green,02-24-2015,11:38:53
12000,real,20,incongruent,694,1,BLUE,RED,blue,02-24-2015,11:38:53
12000,real,21,congruent,579,1,RED,RED,red,02-24-2015,11:38:53
12000,real,22,congruent,612,1,GREEN,GREEN,green,02-24-2015,11:38:53
12000,real,23,congruent,608,1,BLUE,BLUE,blue,02-24-2015,11:38:53
12000,real,24,incongruent,815,1,BLUE,GREEN,blue,02-24-2015,11:38:53
12000,real,25,incongruent,446,1,BLUE,RED,blue,02-24-2015,11:38:53
12000,real,26,incongruent,597,1,GREEN,BLUE,green,02-24-2015,11:38:53
12000,real,27,congruent,590,1,BLUE,BLUE,blue,02-24-2015,11:38:53
12000,real,28,congruent,607,1,GREEN,GREEN,green,02-24-2015,11:38:53
12000,real,29,congruent,406,1,GREEN,GREEN,green,02-24-2015,11:38:53
12000,real,30,congruent,519,1,RED,RED,red,02-24-2015,11:38:53
12000,real,31,congruent,514,1,GREEN,GREEN,green,02-24-2015,11:38:53
12000,real,32,incongruent,742,1,RED,GREEN,red,02-24-2015,11:38:53
12000,real,33,incongruent,649,1,RED,GREEN,red,02-24-2015,11:38:53
12000,real,34,congruent,623,1,GREEN,GREEN,green,02-24-2015,11:38:53
12000,real,35,congruent,542,1,GREEN,GREEN,green,02-24-2015,11:38:53
12000,real,36,incongruent,617,1,GREEN,BLUE,green,02-24-2015,11:38:53
12000,real,37,congruent,576,1,BLUE,BLUE,blue,02-24-2015,11:38:53
12000,real,38,congruent,473,1,BLUE,BLUE,blue,02-24-2015,11:38:53
12000,real,39,congruent,494,1,GREEN,GREEN,green,02-24-2015,11:38:53
12000,real,40,incongruent,851,1,BLUE,GREEN,blue,02-24-2015,11:38:53
12000,real,41,congruent,634,1,GREEN,GREEN,green,02-24-2015,11:38:53
12000,real,42,incongruent,810,1,GREEN,BLUE,green,02-24-2015,11:38:53
12000,real,43,congruent,579,1,BLUE,BLUE,blue,02-24-2015,11:38:53
12000,real,44,incongruent,413,1,RED,BLUE,red,02-24-2015,11:38:53
12000,real,45,congruent,548,1,BLUE,BLUE,blue,02-24-2015,11:38:53
12000,real,46,incongruent,479,1,RED,BLUE,red,02-24-2015,11:38:53
12000,real,47,congruent,517,1,BLUE,BLUE,blue,02-24-2015,11:38:53
12000,real,48,congruent,600,1,GREEN,GREEN,green,02-24-2015,11:38:53
12000,real,49,incongruent,801,1,GREEN,RED,green,02-24-2015,11:38:53
12000,real,50,congruent,519,1,RED,RED,red,02-24-2015,11:38:53
12000,real,51,congruent,706,1,GREEN,GREEN,green,02-24-2015,11:38:53
12000,real,52,congruent,559,1,RED,RED,red,02-24-2015,11:38:53
12000,real,53,congruent,632,1,BLUE,BLUE,blue,02-24-2015,11:38:53
12000,real,54,incongruent,638,1,GREEN,RED,green,02-24-2015,11:38:53
12000,real,55,congruent,606,1,BLUE,BLUE,blue,02-24-2015,11:38:53
12000,real,56,congruent,509,1,RED,RED,red,02-24-2015,11:38:53
12000,real,57,incongruent,625,1,BLUE,RED,blue,02-24-2015,11:38:53
12000,real,58,congruent,608,1,RED,RED,red,02-24-2015,11:38:53
12000,real,59,incongruent,791,1,RED,BLUE,red,02-24-2015,11:38:53
12000,real,60,incongruent,809,1,RED,GREEN,red,02-24-2015,11:38:53
12000,real,61,congruent,600,1,BLUE,BLUE,blue,02-24-2015,11:38:53
12000,real,62,congruent,1465,1,RED,RED,red,02-24-2015,11:38:53
12000,real,63,incongruent,854,1,BLUE,GREEN,blue,02-24-2015,11:38:53
12000,real,64,incongruent,927,1,BLUE,GREEN,blue,02-24-2015,11:38:53
12000,real,65,congruent,474,1,RED,RED,red,02-24-2015,11:38:53
12000,real,66,congruent,542,1,RED,RED,red,02-24-2015,11:38:53
12000,real,67,congruent,473,1,BLUE,BLUE,blue,02-24-2015,11:38:53
12000,real,68,incongruent,542,1,BLUE,RED,blue,02-24-2015,11:38:53
12000,real,69,incongruent,1010,1,RED,GREEN,red,02-24-2015,11:38:53
12000,real,70,incongruent,522,1,BLUE,GREEN,blue,02-24-2015,11:38:53
12000,real,71,congruent,516,1,GREEN,GREEN,green,02-24-2015,11:38:53
12000,real,72,incongruent,704,1,RED,GREEN,red,02-24-2015,11:38:53
12000,real,73,congruent,557,1,GREEN,GREEN,green,02-24-2015,11:38:53
12000,real,74,incongruent,542,1,BLUE,GREEN,blue,02-24-2015,11:38:53
12000,real,75,incongruent,730,1,GREEN,BLUE,green,02-24-2015,11:38:53
12000,real,76,incongruent,612,1,RED,BLUE,red,02-24-2015,11:38:53
12000,real,77,congruent,477,1,GREEN,GREEN,green,02-24-2015,11:38:53
12000,real,78,incongruent,514,1,GREEN,RED,green,02-24-2015,11:38:53
12000,real,79,congruent,478,1,RED,RED,red,02-24-2015,11:38:53
12000,real,80,incongruent,547,1,BLUE,GREEN,blue,02-24-2015,11:38:53
12000,real,81,incongruent,784,1,GREEN,RED,green,02-24-2015,11:38:53
12000,real,82,congruent,729,1,BLUE,BLUE,blue,02-24-2015,11:38:53
12000,real,83,congruent,492,1,GREEN,GREEN,green,02-24-2015,11:38:53
12000,real,84,incongruent,848,0,GREEN,RED,blue,02-24-2015,11:38:53
12000,real,85,congruent,622,1,GREEN,GREEN,green,02-24-2015,11:38:53
12000,real,86,incongruent,501,1,GREEN,RED,green,02-24-2015,11:38:53
12000,real,87,congruent,570,1,BLUE,BLUE,blue,02-24-2015,11:38:53
12000,real,88,congruent,875,1,RED,RED,red,02-24-2015,11:38:53
12000,real,89,congruent,751,1,BLUE,BLUE,blue,02-24-2015,11:38:53
12000,real,90,congruent,521,1,BLUE,BLUE,blue,02-24-2015,11:38:53
12000,real,91,congruent,829,1,RED,RED,red,02-24-2015,11:38:53
12000,real,92,congruent,805,1,GREEN,GREEN,green,02-24-2015,11:38:53
12000,real,93,congruent,668,1,RED,RED,red,02-24-2015,11:38:53
12000,real,94,congruent,864,1,RED,RED,red,02-24-2015,11:38:53
12000,real,95,congruent,1183,1,RED,RED,red,02-24-2015,11:38:53
12000,real,96,congruent,608,1,GREEN,GREEN,green,02-24-2015,11:38:53
12000,real,97,congruent,1040,1,BLUE,BLUE,blue,02-24-2015,11:38:53
12000,real,98,congruent,630,1,BLUE,BLUE,blue,02-24-2015,11:38:53
12000,real,99,congruent,998,1,BLUE,BLUE,blue,02-24-2015,11:38:53
12000,real,100,incongruent,1078,1,GREEN,BLUE,green,02-24-2015,11:38:53
12000,real,101,congruent,691,1,GREEN,GREEN,green,02-24-2015,11:38:53
12000,real,102,congruent,584,1,BLUE,BLUE,blue,02-24-2015,11:38:53
12000,real,103,incongruent,704,1,BLUE,RED,blue,02-24-2015,11:38:53
12000,real,104,congruent,363,1,BLUE,BLUE,blue,02-24-2015,11:38:53
12000,real,105,incongruent,534,1,GREEN,BLUE,green,02-24-2015,11:38:53
12000,real,106,congruent,448,1,BLUE,BLUE,blue,02-24-2015,11:38:53
12000,real,107,incongruent,534,1,GREEN,RED,green,02-24-2015,11:38:53
12000,real,108,congruent,441,1,GREEN,GREEN,green,02-24-2015,11:38:53
12000,real,109,incongruent,632,1,RED,GREEN,red,02-24-2015,11:38:53
12000,real,110,congruent,512,1,RED,RED,red,02-24-2015,11:38:53
12000,real,111,incongruent,715,1,RED,BLUE,red,02-24-2015,11:38:53
12000,real,112,congruent,527,1,GREEN,GREEN,green,02-24-2015,11:38:53
12000,real,113,incongruent,690,1,BLUE,RED,blue,02-24-2015,11:38:53
12000,real,114,congruent,471,1,RED,RED,red,02-24-2015,11:38:53
12000,real,115,congruent,733,1,GREEN,GREEN,green,02-24-2015,11:38:53
12000,real,116,congruent,656,1,BLUE,BLUE,blue,02-24-2015,11:38:53
12000,real,117,congruent,356,1,BLUE,BLUE,blue,02-24-2015,11:38:53
12000,real,118,congruent,535,1,GREEN,GREEN,green,02-24-2015,11:38:53
12000,real,119,congruent,505,1,BLUE,BLUE,blue,02-24-2015,11:38:53
12000,real,120,congruent,445,1,BLUE,BLUE,blue,02-24-2015,11:38:53
12000,real,121,congruent,1101,1,RED,RED,red,02-24-2015,11:38:53
12000,real,122,incongruent,503,1,RED,BLUE,red,02-24-2015,11:38:53
12000,real,123,congruent,612,1,GREEN,GREEN,green,02-24-2015,11:38:53
12000,real,124,congruent,1344,1,RED,RED,red,02-24-2015,11:38:53
12000,real,125,congruent,474,1,GREEN,GREEN,green,02-24-2015,11:38:53
12000,real,126,incongruent,791,1,BLUE,RED,blue,02-24-2015,11:38:53
12000,real,127,congruent,1113,1,RED,RED,red,02-24-2015,11:38:53
12000,real,128,congruent,1132,1,RED,RED,red,02-24-2015,11:38:53
12000,real,129,congruent,590,1,GREEN,GREEN,green,02-24-2015,11:38:53
12000,real,130,congruent,631,1,RED,RED,red,02-24-2015,11:38:53
12000,real,131,congruent,598,1,BLUE,BLUE,blue,02-24-2015,11:38:53
12000,real,132,incongruent,848,1,BLUE,RED,blue,02-24-2015,11:38:53
12000,real,133,congruent,630,1,GREEN,GREEN,green,02-24-2015,11:38:53
12000,real,134,incongruent,1933,1,GREEN,RED,green,02-24-2015,11:38:53
12000,real,135,congruent,680,1,BLUE,BLUE,blue,02-24-2015,11:38:53
12000,real,136,congruent,637,1,GREEN,GREEN,green,02-24-2015,11:38:53
12000,real,137,congruent,644,1,RED,RED,red,02-24-2015,11:38:53
12000,real,138,incongruent,714,1,RED,GREEN,red,02-24-2015,11:38:53
12000,real,139,congruent,704,1,BLUE,BLUE,blue,02-24-2015,11:38:53
12000,real,140,congruent,596,1,RED,RED,red,02-24-2015,11:38:53
12000,real,141,congruent,533,1,RED,RED,red,02-24-2015,11:38:53
12000,real,142,incongruent,791,1,BLUE,GREEN,blue,02-24-2015,11:38:53
12000,real,143,congruent,592,1,RED,RED,red,02-24-2015,11:38:53
12000,real,144,congruent,537,1,GREEN,GREEN,green,02-24-2015,11:38:53
12000,real,145,congruent,443,1,RED,RED,red,02-24-2015,11:38:53
12000,real,146,congruent,826,1,BLUE,BLUE,blue,02-24-2015,11:38:53
12000,real,147,incongruent,896,1,RED,BLUE,red,02-24-2015,11:38:53
12000,real,148,incongruent,557,1,RED,GREEN,red,02-24-2015,11:38:53
12000,real,149,congruent,671,1,BLUE,BLUE,blue,02-24-2015,11:38:53
12000,real,150,congruent,557,1,GREEN,GREEN,green,02-24-2015,11:38:53
12000,real,151,congruent,567,1,BLUE,BLUE,blue,02-24-2015,11:38:53
12000,real,152,congruent,855,1,RED,RED,red,02-24-2015,11:38:53
12000,real,153,incongruent,678,1,RED,GREEN,red,02-24-2015,11:38:53
12000,real,154,congruent,467,1,RED,RED,red,02-24-2015,11:38:53
12000,real,155,incongruent,945,1,GREEN,BLUE,green,02-24-2015,11:38:53
12000,real,156,congruent,444,0,GREEN,RED,red,02-24-2015,11:38:53
12000,real,157,congruent,459,1,GREEN,GREEN,green,02-24-2015,11:38:53
12000,real,158,congruent,432,1,GREEN,GREEN,green,02-24-2015,11:38:53
12000,real,159,congruent,535,1,RED,RED,red,02-24-2015,11:38:53
12000,real,160,congruent,521,1,GREEN,GREEN,green,02-24-2015,11:38:53
12000,real,161,congruent,389,1,BLUE,BLUE,blue,02-24-2015,11:38:53
12000,real,162,congruent,526,1,GREEN,GREEN,green,02-24-2015,11:38:53
12002,practice,1,congruent,857,1,RED,RED,red,02-23-2015,15:18:04
12002,practice,2,incongruent,836,1,GREEN,BLUE,green,02-23-2015,15:18:04
12002,practice,3,congruent,408,1,RED,RED,red,02-23-2015,15:18:04
12002,practice,4,congruent,789,1,BLUE,BLUE,blue,02-23-2015,15:18:04
12002,practice,5,congruent,667,1,BLUE,BLUE,blue,02-23-2015,15:18:04
12002,practice,6,incongruent,774,1,RED,GREEN,red,02-23-2015,15:18:04
12002,practice,7,incongruent,853,1,GREEN,RED,green,02-23-2015,15:18:04
12002,practice,8,congruent,888,1,BLUE,BLUE,blue,02-23-2015,15:18:04
12002,practice,9,congruent,585,1,BLUE,BLUE,blue,02-23-2015,15:18:04
12002,practice,10,congruent,857,1,GREEN,GREEN,green,02-23-2015,15:18:04
12002,practice,11,congruent,523,1,GREEN,GREEN,green,02-23-2015,15:18:04
12002,practice,12,incongruent,564,1,BLUE,RED,blue,02-23-2015,15:18:04
12002,practice,13,incongruent,666,1,BLUE,GREEN,blue,02-23-2015,15:18:04
12002,practice,14,congruent,789,1,GREEN,GREEN,green,02-23-2015,15:18:04
12002,practice,15,congruent,587,1,RED,RED,red,02-23-2015,15:18:04
12002,practice,16,congruent,496,1,RED,RED,red,02-23-2015,15:18:04
12002,practice,17,congruent,626,1,GREEN,GREEN,green,02-23-2015,15:18:04
12002,practice,18,incongruent,766,1,RED,BLUE,red,02-23-2015,15:18:04
12002,real,1,congruent,629,1,BLUE,BLUE,blue,02-23-2015,15:18:04
12002,real,2,congruent,727,1,GREEN,GREEN,green,02-23-2015,15:18:04
12002,real,3,congruent,582,1,GREEN,GREEN,green,02-23-2015,15:18:04
12002,real,4,congruent,738,1,RED,RED,red,02-23-2015,15:18:04
12002,real,5,congruent,547,1,RED,RED,red,02-23-2015,15:18:04
12002,real,6,congruent,456,1,RED,RED,red,02-23-2015,15:18:04
12002,real,7,incongruent,746,1,GREEN,BLUE,green,02-23-2015,15:18:04
12002,real,8,congruent,551,1,RED,RED,red,02-23-2015,15:18:04
12002,real,9,incongruent,1062,1,RED,BLUE,red,02-23-2015,15:18:04
12002,real,10,incongruent,664,1,RED,BLUE,red,02-23-2015,15:18:04
12002,real,11,incongruent,577,1,GREEN,RED,green,02-23-2015,15:18:04
12002,real,12,incongruent,813,1,GREEN,RED,green,02-23-2015,15:18:04
12002,real,13,incongruent,857,1,BLUE,GREEN,blue,02-23-2015,15:18:04
12002,real,14,congruent,660,1,BLUE,BLUE,blue,02-23-2015,15:18:04
12002,real,15,congruent,397,1,BLUE,BLUE,blue,02-23-2015,15:18:04
12002,real,16,congruent,497,1,BLUE,BLUE,blue,02-23-2015,15:18:04
12002,real,17,incongruent,769,1,GREEN,BLUE,green,02-23-2015,15:18:04
12002,real,18,congruent,575,1,RED,RED,red,02-23-2015,15:18:04
12002,real,19,congruent,898,1,GREEN,GREEN,green,02-23-2015,15:18:04
12002,real,20,incongruent,763,1,BLUE,RED,blue,02-23-2015,15:18:04
12002,real,21,congruent,575,1,RED,RED,red,02-23-2015,15:18:04
12002,real,22,congruent,613,1,GREEN,GREEN,green,02-23-2015,15:18:04
12002,real,23,congruent,1106,1,BLUE,BLUE,blue,02-23-2015,15:18:04
12002,real,24,incongruent,466,1,BLUE,GREEN,blue,02-23-2015,15:18:04
12002,real,25,incongruent,443,1,BLUE,RED,blue,02-23-2015,15:18:04
12002,real,26,incongruent,606,1,GREEN,BLUE,green,02-23-2015,15:18:04
12002,real,27,congruent,777,1,BLUE,BLUE,blue,02-23-2015,15:18:04
12002,real,28,congruent,822,1,GREEN,GREEN,green,02-23-2015,15:18:04
12002,real,29,congruent,634,1,GREEN,GREEN,green,02-23-2015,15:18:04
12002,real,30,congruent,772,1,RED,RED,red,02-23-2015,15:18:04
12002,real,31,congruent,570,1,GREEN,GREEN,green,02-23-2015,15:18:04
12002,real,32,incongruent,631,1,RED,GREEN,red,02-23-2015,15:18:04
12002,real,33,incongruent,802,1,RED,GREEN,red,02-23-2015,15:18:04
12002,real,34,congruent,470,1,GREEN,GREEN,green,02-23-2015,15:18:04
12002,real,35,congruent,567,1,GREEN,GREEN,green,02-23-2015,15:18:04
12002,real,36,incongruent,660,1,GREEN,BLUE,green,02-23-2015,15:18:04
12002,real,37,congruent,991,1,BLUE,BLUE,blue,02-23-2015,15:18:04
12002,real,38,congruent,490,1,BLUE,BLUE,blue,02-23-2015,15:18:04
12002,real,39,congruent,611,1,GREEN,GREEN,green,02-23-2015,15:18:04
12002,real,40,incongruent,966,1,BLUE,GREEN,blue,02-23-2015,15:18:04
12002,real,41,congruent,628,1,GREEN,GREEN,green,02-23-2015,15:18:04
12002,real,42,incongruent,700,1,GREEN,BLUE,green,02-23-2015,15:18:04
12002,real,43,congruent,939,1,BLUE,BLUE,blue,02-23-2015,15:18:04
12002,real,44,incongruent,650,1,RED,BLUE,red,02-23-2015,15:18:04
12002,real,45,congruent,428,1,BLUE,BLUE,blue,02-23-2015,15:18:04
12002,real,46,incongruent,718,1,RED,BLUE,red,02-23-2015,15:18:04
12002,real,47,congruent,591,1,BLUE,BLUE,blue,02-23-2015,15:18:04
12002,real,48,congruent,506,1,GREEN,GREEN,green,02-23-2015,15:18:04
12002,real,49,incongruent,626,1,GREEN,RED,green,02-23-2015,15:18:04
12002,real,50,congruent,542,1,RED,RED,red,02-23-2015,15:18:04
12002,real,51,congruent,420,1,GREEN,GREEN,green,02-23-2015,15:18:04
12002,real,52,congruent,462,1,RED,RED,red,02-23-2015,15:18:04
12002,real,53,congruent,432,1,BLUE,BLUE,blue,02-23-2015,15:18:04
12002,real,54,incongruent,811,1,GREEN,RED,green,02-23-2015,15:18:04
12002,real,55,congruent,565,1,BLUE,BLUE,blue,02-23-2015,15:18:04
12002,real,56,congruent,708,1,RED,RED,red,02-23-2015,15:18:04
12002,real,57,incongruent,706,1,BLUE,RED,blue,02-23-2015,15:18:04
12002,real,58,congruent,691,1,RED,RED,red,02-23-2015,15:18:04
12002,real,59,incongruent,914,1,RED,BLUE,red,02-23-2015,15:18:04
12002,real,60,incongruent,737,1,RED,GREEN,red,02-23-2015,15:18:04
12002,real,61,congruent,928,0,GREEN,BLUE,blue,02-23-2015,15:18:04
12002,real,62,congruent,634,1,RED,RED,red,02-23-2015,15:18:04
12002,real,63,incongruent,927,1,BLUE,GREEN,blue,02-23-2015,15:18:04
12002,real,64,incongruent,759,1,BLUE,GREEN,blue,02-23-2015,15:18:04
12002,real,65,congruent,585,1,RED,RED,red,02-23-2015,15:18:04
12002,real,66,congruent,441,1,RED,RED,red,02-23-2015,15:18:04
12002,real,67,congruent,727,1,BLUE,BLUE,blue,02-23-2015,15:18:04
12002,real,68,incongruent,810,1,BLUE,RED,blue,02-23-2015,15:18:04
12002,real,69,incongruent,794,1,RED,GREEN,red,02-23-2015,15:18:04
12002,real,70,incongruent,842,1,BLUE,GREEN,blue,02-23-2015,15:18:04
12002,real,71,congruent,536,1,GREEN,GREEN,green,02-23-2015,15:18:04
12002,real,72,incongruent,795,1,RED,GREEN,red,02-23-2015,15:18:04
12002,real,73,congruent,1284,1,GREEN,GREEN,green,02-23-2015,15:18:04
12002,real,74,incongruent,561,1,BLUE,GREEN,blue,02-23-2015,15:18:04
12002,real,75,incongruent,650,1,GREEN,BLUE,green,02-23-2015,15:18:04
12002,real,76,incongruent,505,1,RED,BLUE,red,02-23-2015,15:18:04
12002,real,77,congruent,564,1,GREEN,GREEN,green,02-23-2015,15:18:04
12002,real,78,incongruent,894,1,GREEN,RED,green,02-23-2015,15:18:04
12002,real,79,congruent,579,1,RED,RED,red,02-23-2015,15:18:04
12002,real,80,incongruent,403,1,BLUE,GREEN,blue,02-23-2015,15:18:04
12002,real,81,incongruent,800,1,GREEN,RED,green,02-23-2015,15:18:04
12002,real,82,congruent,568,1,BLUE,BLUE,blue,02-23-2015,15:18:04
12002,real,83,congruent,481,1,GREEN,GREEN,green,02-23-2015,15:18:04
12002,real,84,incongruent,669,1,BLUE,RED,blue,02-23-2015,15:18:04
12002,real,85,congruent,642,1,GREEN,GREEN,green,02-23-2015,15:18:04
12002,real,86,incongruent,888,1,GREEN,RED,green,02-23-2015,15:18:04
12002,real,87,congruent,597,1,BLUE,BLUE,blue,02-23-2015,15:18:04
12002,real,88,congruent,557,1,RED,RED,red,02-23-2015,15:18:04
12002,real,89,congruent,607,1,BLUE,BLUE,blue,02-23-2015,15:18:04
12002,real,90,congruent,503,1,BLUE,BLUE,blue,02-23-2015,15:18:04
12002,real,91,congruent,587,1,RED,RED,red,02-23-2015,15:18:04
12002,real,92,congruent,468,1,GREEN,GREEN,green,02-23-2015,15:18:04
12002,real,93,congruent,569,1,RED,RED,red,02-23-2015,15:18:04
12002,real,94,congruent,417,1,RED,RED,red,02-23-2015,15:18:04
12002,real,95,congruent,465,1,RED,RED,red,02-23-2015,15:18:04
12002,real,96,congruent,687,1,GREEN,GREEN,green,02-23-2015,15:18:04
12002,real,97,congruent,595,1,BLUE,BLUE,blue,02-23-2015,15:18:04
12002,real,98,congruent,507,1,BLUE,BLUE,blue,02-23-2015,15:18:04
12002,real,99,congruent,543,1,BLUE,BLUE,blue,02-23-2015,15:18:04
12002,real,100,incongruent,714,1,GREEN,BLUE,green,02-23-2015,15:18:04
12002,real,101,congruent,566,1,GREEN,GREEN,green,02-23-2015,15:18:04
12002,real,102,congruent,640,1,BLUE,BLUE,blue,02-23-2015,15:18:04
12002,real,103,incongruent,947,1,BLUE,RED,blue,02-23-2015,15:18:04
12002,real,104,congruent,445,1,BLUE,BLUE,blue,02-23-2015,15:18:04
12002,real,105,incongruent,604,1,GREEN,BLUE,green,02-23-2015,15:18:04
12002,real,106,congruent,372,1,BLUE,BLUE,blue,02-23-2015,15:18:04
12002,real,107,incongruent,692,1,GREEN,RED,green,02-23-2015,15:18:04
12002,real,108,congruent,440,1,GREEN,GREEN,green,02-23-2015,15:18:04
12002,real,109,incongruent,863,1,RED,GREEN,red,02-23-2015,15:18:04
12002,real,110,congruent,381,1,RED,RED,red,02-23-2015,15:18:04
12002,real,111,incongruent,526,1,RED,BLUE,red,02-23-2015,15:18:04
12002,real,112,congruent,584,1,GREEN,GREEN,green,02-23-2015,15:18:04
12002,real,113,incongruent,632,1,BLUE,RED,blue,02-23-2015,15:18:04
12002,real,114,congruent,495,1,RED,RED,red,02-23-2015,15:18:04
12002,real,115,congruent,556,1,GREEN,GREEN,green,02-23-2015,15:18:04
12002,real,116,congruent,725,1,BLUE,BLUE,blue,02-23-2015,15:18:04
12002,real,117,congruent,520,1,BLUE,BLUE,blue,02-23-2015,15:18:04
12002,real,118,congruent,579,1,GREEN,GREEN,green,02-23-2015,15:18:04
12002,real,119,congruent,932,1,BLUE,BLUE,blue,02-23-2015,15:18:04
12002,real,120,congruent,487,1,BLUE,BLUE,blue,02-23-2015,15:18:04
12002,real,121,congruent,522,1,RED,RED,red,02-23-2015,15:18:04
12002,real,122,incongruent,701,1,RED,BLUE,red,02-23-2015,15:18:04
12002,real,123,congruent,585,1,GREEN,GREEN,green,02-23-2015,15:18:04
12002,real,124,congruent,590,1,RED,RED,red,02-23-2015,15:18:04
12002,real,125,congruent,599,1,GREEN,GREEN,green,02-23-2015,15:18:04
12002,real,126,incongruent,647,1,BLUE,RED,blue,02-23-2015,15:18:04
12002,real,127,congruent,429,1,RED,RED,red,02-23-2015,15:18:04
12002,real,128,congruent,517,1,RED,RED,red,02-23-2015,15:18:04
12002,real,129,congruent,663,1,GREEN,GREEN,green,02-23-2015,15:18:04
12002,real,130,congruent,605,1,RED,RED,red,02-23-2015,15:18:04
12002,real,131,congruent,596,1,BLUE,BLUE,blue,02-23-2015,15:18:04
12002,real,132,incongruent,725,1,BLUE,RED,blue,02-23-2015,15:18:04
12002,real,133,congruent,592,1,GREEN,GREEN,green,02-23-2015,15:18:04
12002,real,134,incongruent,959,1,GREEN,RED,green,02-23-2015,15:18:04
12002,real,135,congruent,649,1,BLUE,BLUE,blue,02-23-2015,15:18:04
12002,real,136,congruent,503,1,GREEN,GREEN,green,02-23-2015,15:18:04
12002,real,137,congruent,499,1,RED,RED,red,02-23-2015,15:18:04
12002,real,138,incongruent,487,1,RED,GREEN,red,02-23-2015,15:18:04
12002,real,139,congruent,936,0,GREEN,BLUE,blue,02-23-2015,15:18:04
12002,real,140,congruent,763,1,RED,RED,red,02-23-2015,15:18:04
12002,real,141,congruent,739,1,RED,RED,red,02-23-2015,15:18:04
12002,real,142,incongruent,1102,1,BLUE,GREEN,blue,02-23-2015,15:18:04
12002,real,143,congruent,609,1,RED,RED,red,02-23-2015,15:18:04
12002,real,144,congruent,561,1,GREEN,GREEN,green,02-23-2015,15:18:04
12002,real,145,congruent,466,1,RED,RED,red,02-23-2015,15:18:04
12002,real,146,congruent,758,1,BLUE,BLUE,blue,02-23-2015,15:18:04
12002,real,147,incongruent,816,1,RED,BLUE,red,02-23-2015,15:18:04
12002,real,148,incongruent,832,1,RED,GREEN,red,02-23-2015,15:18:04
12002,real,149,congruent,646,1,BLUE,BLUE,blue,02-23-2015,15:18:04
12002,real,150,congruent,653,1,GREEN,GREEN,green,02-23-2015,15:18:04
12002,real,151,congruent,666,1,BLUE,BLUE,blue,02-23-2015,15:18:04
12002,real,152,congruent,567,1,RED,RED,red,02-23-2015,15:18:04
12002,real,153,incongruent,592,1,RED,GREEN,red,02-23-2015,15:18:04
12002,real,154,congruent,504,1,RED,RED,red,02-23-2015,15:18:04
12002,real,155,incongruent,823,0,BLUE,BLUE,green,02-23-2015,15:18:04
12002,real,156,congruent,477,1,RED,RED,red,02-23-2015,15:18:04
12002,real,157,congruent,699,1,GREEN,GREEN,green,02-23-2015,15:18:04
12002,real,158,congruent,463,1,GREEN,GREEN,green,02-23-2015,15:18:04
12002,real,159,congruent,508,1,RED,RED,red,02-23-2015,15:18:04
12002,real,160,congruent,584,1,GREEN,GREEN,green,02-23-2015,15:18:04
12002,real,161,congruent,537,1,BLUE,BLUE,blue,02-23-2015,15:18:04
12002,real,162,congruent,596,1,GREEN,GREEN,green,02-23-2015,15:18:04
12006,practice,1,congruent,903,1,RED,RED,red,02-23-2015,09:30:32
12006,practice,2,incongruent,1033,1,GREEN,BLUE,green,02-23-2015,09:30:32
12006,practice,3,congruent,757,1,RED,RED,red,02-23-2015,09:30:32
12006,practice,4,congruent,653,1,BLUE,BLUE,blue,02-23-2015,09:30:32
12006,practice,5,congruent,583,1,BLUE,BLUE,blue,02-23-2015,09:30:32
12006,practice,6,incongruent,678,1,RED,GREEN,red,02-23-2015,09:30:32
12006,practice,7,incongruent,496,1,GREEN,RED,green,02-23-2015,09:30:32
12006,practice,8,congruent,657,1,BLUE,BLUE,blue,02-23-2015,09:30:32
12006,practice,9,congruent,558,1,BLUE,BLUE,blue,02-23-2015,09:30:32
12006,practice,10,congruent,571,1,GREEN,GREEN,green,02-23-2015,09:30:32
12006,practice,11,congruent,570,1,GREEN,GREEN,green,02-23-2015,09:30:32
12006,practice,12,incongruent,663,1,BLUE,RED,blue,02-23-2015,09:30:32
12006,practice,13,incongruent,627,1,BLUE,GREEN,blue,02-23-2015,09:30:32
12006,practice,14,congruent,799,1,GREEN,GREEN,green,02-23-2015,09:30:32
12006,practice,15,congruent,757,1,RED,RED,red,02-23-2015,09:30:32
12006,practice,16,congruent,668,1,RED,RED,red,02-23-2015,09:30:32
12006,practice,17,congruent,855,1,GREEN,GREEN,green,02-23-2015,09:30:32
12006,practice,18,incongruent,618,1,RED,BLUE,red,02-23-2015,09:30:32
12006,real,1,congruent,827,1,BLUE,BLUE,blue,02-23-2015,09:30:32
12006,real,2,congruent,492,1,GREEN,GREEN,green,02-23-2015,09:30:32
12006,real,3,congruent,653,1,GREEN,GREEN,green,02-23-2015,09:30:32
12006,real,4,congruent,767,1,RED,RED,red,02-23-2015,09:30:32
12006,real,5,congruent,524,1,RED,RED,red,02-23-2015,09:30:32
12006,real,6,congruent,596,1,RED,RED,red,02-23-2015,09:30:32
12006,real,7,incongruent,862,1,GREEN,BLUE,green,02-23-2015,09:30:32
12006,real,8,congruent,632,1,RED,RED,red,02-23-2015,09:30:32
12006,real,9,incongruent,635,1,RED,BLUE,red,02-23-2015,09:30:32
12006,real,10,incongruent,558,1,RED,BLUE,red,02-23-2015,09:30:32
12006,real,11,incongruent,756,1,GREEN,RED,green,02-23-2015,09:30:32
12006,real,12,incongruent,658,1,GREEN,RED,green,02-23-2015,09:30:32
12006,real,13,incongruent,716,1,BLUE,GREEN,blue,02-23-2015,09:30:32
12006,real,14,congruent,484,1,BLUE,BLUE,blue,02-23-2015,09:30:32
12006,real,15,congruent,483,1,BLUE,BLUE,blue,02-23-2015,09:30:32
12006,real,16,congruent,573,1,BLUE,BLUE,blue,02-23-2015,09:30:32
12006,real,17,incongruent,954,1,GREEN,BLUE,green,02-23-2015,09:30:32
12006,real,18,congruent,792,1,RED,RED,red,02-23-2015,09:30:32
12006,real,19,congruent,1276,1,GREEN,GREEN,green,02-23-2015,09:30:32
12006,real,20,incongruent,1612,1,BLUE,RED,blue,02-23-2015,09:30:32
12006,real,21,congruent,592,1,RED,RED,red,02-23-2015,09:30:32
12006,real,22,congruent,876,1,GREEN,GREEN,green,02-23-2015,09:30:32
12006,real,23,congruent,1267,1,BLUE,BLUE,blue,02-23-2015,09:30:32
12006,real,24,incongruent,517,1,BLUE,GREEN,blue,02-23-2015,09:30:32
12006,real,25,incongruent,612,1,BLUE,RED,blue,02-23-2015,09:30:32
12006,real,26,incongruent,719,1,GREEN,BLUE,green,02-23-2015,09:30:32
12006,real,27,congruent,751,1,BLUE,BLUE,blue,02-23-2015,09:30:32
12006,real,28,congruent,732,1,GREEN,GREEN,green,02-23-2015,09:30:32
12006,real,29,congruent,1069,1,GREEN,GREEN,green,02-23-2015,09:30:32
12006,real,30,congruent,614,1,RED,RED,red,02-23-2015,09:30:32
12006,real,31,congruent,656,1,GREEN,GREEN,green,02-23-2015,09:30:32
12006,real,32,incongruent,691,1,RED,GREEN,red,02-23-2015,09:30:32
12006,real,33,incongruent,530,1,RED,GREEN,red,02-23-2015,09:30:32
12006,real,34,congruent,619,1,GREEN,GREEN,green,02-23-2015,09:30:32
12006,real,35,congruent,494,1,GREEN,GREEN,green,02-23-2015,09:30:32
12006,real,36,incongruent,765,1,GREEN,BLUE,green,02-23-2015,09:30:32
12006,real,37,congruent,1075,1,BLUE,BLUE,blue,02-23-2015,09:30:32
12006,real,38,congruent,796,1,BLUE,BLUE,blue,02-23-2015,09:30:32
12006,real,39,congruent,608,1,GREEN,GREEN,green,02-23-2015,09:30:32
12006,real,40,incongruent,747,1,BLUE,GREEN,blue,02-23-2015,09:30:32
12006,real,41,congruent,713,1,GREEN,GREEN,green,02-23-2015,09:30:32
12006,real,42,incongruent,1523,1,GREEN,BLUE,green,02-23-2015,09:30:32
12006,real,43,congruent,548,1,BLUE,BLUE,blue,02-23-2015,09:30:32
12006,real,44,incongruent,649,1,RED,BLUE,red,02-23-2015,09:30:32
12006,real,45,congruent,828,1,BLUE,BLUE,blue,02-23-2015,09:30:32
12006,real,46,incongruent,663,1,RED,BLUE,red,02-23-2015,09:30:32
12006,real,47,congruent,663,1,BLUE,BLUE,blue,02-23-2015,09:30:32
12006,real,48,congruent,632,1,GREEN,GREEN,green,02-23-2015,09:30:32
12006,real,49,incongruent,618,1,GREEN,RED,green,02-23-2015,09:30:32
12006,real,50,congruent,662,1,RED,RED,red,02-23-2015,09:30:32
12006,real,51,congruent,712,1,GREEN,GREEN,green,02-23-2015,09:30:32
12006,real,52,congruent,599,1,RED,RED,red,02-23-2015,09:30:32
12006,real,53,congruent,524,1,BLUE,BLUE,blue,02-23-2015,09:30:32
12006,real,54,incongruent,498,1,GREEN,RED,green,02-23-2015,09:30:32
12006,real,55,congruent,786,1,BLUE,BLUE,blue,02-23-2015,09:30:32
12006,real,56,congruent,583,1,RED,RED,red,02-23-2015,09:30:32
12006,real,57,incongruent,627,1,BLUE,RED,blue,02-23-2015,09:30:32
12006,real,58,congruent,750,1,RED,RED,red,02-23-2015,09:30:32
12006,real,59,incongruent,1100,1,RED,BLUE,red,02-23-2015,09:30:32
12006,real,60,incongruent,653,1,RED,GREEN,red,02-23-2015,09:30:32
12006,real,61,congruent,687,1,BLUE,BLUE,blue,02-23-2015,09:30:32
12006,real,62,congruent,736,1,RED,RED,red,02-23-2015,09:30:32
12006,real,63,incongruent,1030,1,BLUE,GREEN,blue,02-23-2015,09:30:32
12006,real,64,incongruent,1053,1,BLUE,GREEN,blue,02-23-2015,09:30:32
12006,real,65,congruent,703,1,RED,RED,red,02-23-2015,09:30:32
12006,real,66,congruent,736,1,RED,RED,red,02-23-2015,09:30:32
12006,real,67,congruent,926,1,BLUE,BLUE,blue,02-23-2015,09:30:32
12006,real,68,incongruent,477,1,BLUE,RED,blue,02-23-2015,09:30:32
12006,real,69,incongruent,565,1,RED,GREEN,red,02-23-2015,09:30:32
12006,real,70,incongruent,660,1,BLUE,GREEN,blue,02-23-2015,09:30:32
12006,real,71,congruent,661,1,GREEN,GREEN,green,02-23-2015,09:30:32
12006,real,72,incongruent,614,1,RED,GREEN,red,02-23-2015,09:30:32
12006,real,73,congruent,1042,1,GREEN,GREEN,green,02-23-2015,09:30:32
12006,real,74,incongruent,587,1,BLUE,GREEN,blue,02-23-2015,09:30:32
12006,real,75,incongruent,681,1,GREEN,BLUE,green,02-23-2015,09:30:32
12006,real,76,incongruent,539,1,RED,BLUE,red,02-23-2015,09:30:32
12006,real,77,congruent,776,1,GREEN,GREEN,green,02-23-2015,09:30:32
12006,real,78,incongruent,613,1,GREEN,RED,green,02-23-2015,09:30:32
12006,real,79,congruent,640,1,RED,RED,red,02-23-2015,09:30:32
12006,real,80,incongruent,971,1,BLUE,GREEN,blue,02-23-2015,09:30:32
12006,real,81,incongruent,1246,1,GREEN,RED,green,02-23-2015,09:30:32
12006,real,82,congruent,554,1,BLUE,BLUE,blue,02-23-2015,09:30:32
12006,real,83,congruent,1815,1,GREEN,GREEN,green,02-23-2015,09:30:32
12006,real,84,incongruent,865,1,BLUE,RED,blue,02-23-2015,09:30:32
12006,real,85,congruent,540,1,GREEN,GREEN,green,02-23-2015,09:30:32
12006,real,86,incongruent,1362,1,GREEN,RED,green,02-23-2015,09:30:32
12006,real,87,congruent,1327,1,BLUE,BLUE,blue,02-23-2015,09:30:32
12006,real,88,congruent,599,1,RED,RED,red,02-23-2015,09:30:32
12006,real,89,congruent,908,1,BLUE,BLUE,blue,02-23-2015,09:30:32
12006,real,90,congruent,523,1,BLUE,BLUE,blue,02-23-2015,09:30:32
12006,real,91,congruent,634,1,RED,RED,red,02-23-2015,09:30:32
12006,real,92,congruent,1645,1,GREEN,GREEN,green,02-23-2015,09:30:32
12006,real,93,congruent,879,0,BLUE,RED,red,02-23-2015,09:30:32
12006,real,94,congruent,1090,1,RED,RED,red,02-23-2015,09:30:32
12006,real,95,congruent,647,1,RED,RED,red,02-23-2015,09:30:32
12006,real,96,congruent,573,1,GREEN,GREEN,green,02-23-2015,09:30:32
12006,real,97,congruent,775,1,BLUE,BLUE,blue,02-23-2015,09:30:32
12006,real,98,congruent,576,1,BLUE,BLUE,blue,02-23-2015,09:30:32
12006,real,99,congruent,929,1,BLUE,BLUE,blue,02-23-2015,09:30:32
12006,real,100,incongruent,645,1,GREEN,BLUE,green,02-23-2015,09:30:32
12006,real,101,congruent,563,1,GREEN,GREEN,green,02-23-2015,09:30:32
12006,real,102,congruent,534,1,BLUE,BLUE,blue,02-23-2015,09:30:32
12006,real,103,incongruent,615,1,BLUE,RED,blue,02-23-2015,09:30:32
12006,real,104,congruent,424,1,BLUE,BLUE,blue,02-23-2015,09:30:32
12006,real,105,incongruent,526,1,GREEN,BLUE,green,02-23-2015,09:30:32
12006,real,106,congruent,866,1,BLUE,BLUE,blue,02-23-2015,09:30:32
12006,real,107,incongruent,608,1,GREEN,RED,green,02-23-2015,09:30:32
12006,real,108,congruent,449,1,GREEN,GREEN,green,02-23-2015,09:30:32
12006,real,109,incongruent,560,1,RED,GREEN,red,02-23-2015,09:30:32
12006,real,110,congruent,553,1,RED,RED,red,02-23-2015,09:30:32
12006,real,111,incongruent,562,1,RED,BLUE,red,02-23-2015,09:30:32
12006,real,112,congruent,757,1,GREEN,GREEN,green,02-23-2015,09:30:32
12006,real,113,incongruent,478,1,BLUE,RED,blue,02-23-2015,09:30:32
12006,real,114,congruent,612,1,RED,RED,red,02-23-2015,09:30:32
12006,real,115,congruent,541,1,GREEN,GREEN,green,02-23-2015,09:30:32
12006,real,116,congruent,567,1,BLUE,BLUE,blue,02-23-2015,09:30:32
12006,real,117,congruent,857,1,BLUE,BLUE,blue,02-23-2015,09:30:32
12006,real,118,congruent,798,1,GREEN,GREEN,green,02-23-2015,09:30:32
12006,real,119,congruent,559,1,BLUE,BLUE,blue,02-23-2015,09:30:32
12006,real,120,congruent,937,1,BLUE,BLUE,blue,02-23-2015,09:30:32
12006,real,121,congruent,796,1,RED,RED,red,02-23-2015,09:30:32
12006,real,122,incongruent,637,1,RED,BLUE,red,02-23-2015,09:30:32
12006,real,123,congruent,660,1,GREEN,GREEN,green,02-23-2015,09:30:32
12006,real,124,congruent,606,1,RED,RED,red,02-23-2015,09:30:32
12006,real,125,congruent,983,1,GREEN,GREEN,green,02-23-2015,09:30:32
12006,real,126,incongruent,856,1,BLUE,RED,blue,02-23-2015,09:30:32
12006,real,127,congruent,894,0,BLUE,RED,red,02-23-2015,09:30:32
12006,real,128,congruent,922,1,RED,RED,red,02-23-2015,09:30:32
12006,real,129,congruent,549,1,GREEN,GREEN,green,02-23-2015,09:30:32
12006,real,130,congruent,1592,1,RED,RED,red,02-23-2015,09:30:32
12006,real,131,congruent,784,1,BLUE,BLUE,blue,02-23-2015,09:30:32
12006,real,132,incongruent,521,1,BLUE,RED,blue,02-23-2015,09:30:32
12006,real,133,congruent,605,1,GREEN,GREEN,green,02-23-2015,09:30:32
12006,real,134,incongruent,629,1,GREEN,RED,green,02-23-2015,09:30:32
12006,real,135,congruent,804,1,BLUE,BLUE,blue,02-23-2015,09:30:32
12006,real,136,congruent,708,1,GREEN,GREEN,green,02-23-2015,09:30:32
12006,real,137,congruent,713,1,RED,RED,red,02-23-2015,09:30:32
12006,real,138,incongruent,652,1,RED,GREEN,red,02-23-2015,09:30:32
12006,real,139,congruent,658,1,BLUE,BLUE,blue,02-23-2015,09:30:32
12006,real,140,congruent,736,1,RED,RED,red,02-23-2015,09:30:32
12006,real,141,congruent,659,1,RED,RED,red,02-23-2015,09:30:32
12006,real,142,incongruent,1362,1,BLUE,GREEN,blue,02-23-2015,09:30:32
12006,real,143,congruent,675,0,BLUE,RED,red,02-23-2015,09:30:32
12006,real,144,congruent,977,1,GREEN,GREEN,green,02-23-2015,09:30:32
12006,real,145,congruent,777,1,RED,RED,red,02-23-2015,09:30:32
12006,real,146,congruent,706,1,BLUE,BLUE,blue,02-23-2015,09:30:32
12006,real,147,incongruent,631,1,RED,BLUE,red,02-23-2015,09:30:32
12006,real,148,incongruent,879,1,RED,GREEN,red,02-23-2015,09:30:32
12006,real,149,congruent,1108,1,BLUE,BLUE,blue,02-23-2015,09:30:32
12006,real,150,congruent,592,1,GREEN,GREEN,green,02-23-2015,09:30:32
12006,real,151,congruent,824,1,BLUE,BLUE,blue,02-23-2015,09:30:32
12006,real,152,congruent,495,1,RED,RED,red,02-23-2015,09:30:32
12006,real,153,incongruent,1420,1,RED,GREEN,red,02-23-2015,09:30:32
12006,real,154,congruent,596,1,RED,RED,red,02-23-2015,09:30:32
12006,real,155,incongruent,722,1,GREEN,BLUE,green,02-23-2015,09:30:32
12006,real,156,congruent,596,1,RED,RED,red,02-23-2015,09:30:32
12006,real,157,congruent,926,1,GREEN,GREEN,green,02-23-2015,09:30:32
12006,real,158,congruent,721,1,GREEN,GREEN,green,02-23-2015,09:30:32
12006,real,159,congruent,668,1,RED,RED,red,02-23-2015,09:30:32
12006,real,160,congruent,626,1,GREEN,GREEN,green,02-23-2015,09:30:32
12006,real,161,congruent,809,1,BLUE,BLUE,blue,02-23-2015,09:30:32
12006,real,162,congruent,1089,1,GREEN,GREEN,green,02-23-2015,09:30:32
12008,practice,1,congruent,954,1,RED,RED,red,03-13-2015,12:22:35
12008,practice,2,incongruent,762,1,GREEN,BLUE,green,03-13-2015,12:22:35
12008,practice,3,congruent,816,1,RED,RED,red,03-13-2015,12:22:35
12008,practice,4,congruent,901,1,BLUE,BLUE,blue,03-13-2015,12:22:35
12008,practice,5,congruent,502,1,BLUE,BLUE,blue,03-13-2015,12:22:35
12008,practice,6,incongruent,1063,1,RED,GREEN,red,03-13-2015,12:22:35
12008,practice,7,incongruent,834,1,GREEN,RED,green,03-13-2015,12:22:35
12008,practice,8,congruent,645,1,BLUE,BLUE,blue,03-13-2015,12:22:35
12008,practice,9,congruent,497,1,BLUE,BLUE,blue,03-13-2015,12:22:35
12008,practice,10,congruent,754,1,GREEN,GREEN,green,03-13-2015,12:22:35
12008,practice,11,congruent,554,1,GREEN,GREEN,green,03-13-2015,12:22:35
12008,practice,12,incongruent,1018,1,BLUE,RED,blue,03-13-2015,12:22:35
12008,practice,13,incongruent,583,1,BLUE,GREEN,blue,03-13-2015,12:22:35
12008,practice,14,congruent,804,1,GREEN,GREEN,green,03-13-2015,12:22:35
12008,practice,15,congruent,490,1,RED,RED,red,03-13-2015,12:22:35
12008,practice,16,congruent,573,1,RED,RED,red,03-13-2015,12:22:35
12008,practice,17,congruent,1019,1,GREEN,GREEN,green,03-13-2015,12:22:35
12008,practice,18,incongruent,968,1,RED,BLUE,red,03-13-2015,12:22:35
12008,real,1,congruent,689,1,BLUE,BLUE,blue,03-13-2015,12:22:35
12008,real,2,congruent,842,1,GREEN,GREEN,green,03-13-2015,12:22:35
12008,real,3,congruent,491,1,GREEN,GREEN,green,03-13-2015,12:22:35
12008,real,4,congruent,659,1,RED,RED,red,03-13-2015,12:22:35
12008,real,5,congruent,565,1,RED,RED,red,03-13-2015,12:22:35
12008,real,6,congruent,523,1,RED,RED,red,03-13-2015,12:22:35
12008,real,7,incongruent,1050,1,GREEN,BLUE,green,03-13-2015,12:22:35
12008,real,8,congruent,779,1,RED,RED,red,03-13-2015,12:22:35
12008,real,9,incongruent,889,1,RED,BLUE,red,03-13-2015,12:22:35
12008,real,10,incongruent,801,1,RED,BLUE,red,03-13-2015,12:22:35
12008,real,11,incongruent,813,1,GREEN,RED,green,03-13-2015,12:22:35
12008,real,12,incongruent,825,1,GREEN,RED,green,03-13-2015,12:22:35
12008,real,13,incongruent,700,1,BLUE,GREEN,blue,03-13-2015,12:22:35
12008,real,14,congruent,420,1,BLUE,BLUE,blue,03-13-2015,12:22:35
12008,real,15,congruent,455,1,BLUE,BLUE,blue,03-13-2015,12:22:35
12008,real,16,congruent,529,1,BLUE,BLUE,blue,03-13-2015,12:22:35
12008,real,17,incongruent,832,1,GREEN,BLUE,green,03-13-2015,12:22:35
12008,real,18,congruent,819,1,RED,RED,red,03-13-2015,12:22:35
12008,real,19,congruent,1046,1,GREEN,GREEN,green,03-13-2015,12:22:35
12008,real,20,incongruent,864,1,BLUE,RED,blue,03-13-2015,12:22:35
12008,real,21,congruent,674,1,RED,RED,red,03-13-2015,12:22:35
12008,real,22,congruent,698,1,GREEN,GREEN,green,03-13-2015,12:22:35
12008,real,23,congruent,816,1,BLUE,BLUE,blue,03-13-2015,12:22:35
12008,real,24,incongruent,580,1,BLUE,GREEN,blue,03-13-2015,12:22:35
12008,real,25,incongruent,497,1,BLUE,RED,blue,03-13-2015,12:22:35
12008,real,26,incongruent,833,1,GREEN,BLUE,green,03-13-2015,12:22:35
12008,real,27,congruent,699,1,BLUE,BLUE,blue,03-13-2015,12:22:35
12008,real,28,congruent,860,1,GREEN,GREEN,green,03-13-2015,12:22:35
12008,real,29,congruent,790,1,GREEN,GREEN,green,03-13-2015,12:22:35
12008,real,30,congruent,745,1,RED,RED,red,03-13-2015,12:22:35
12008,real,31,congruent,751,1,GREEN,GREEN,green,03-13-2015,12:22:35
12008,real,32,incongruent,782,1,RED,GREEN,red,03-13-2015,12:22:35
12008,real,33,incongruent,539,1,RED,GREEN,red,03-13-2015,12:22:35
12008,real,34,congruent,993,1,GREEN,GREEN,green,03-13-2015,12:22:35
12008,real,35,congruent,870,1,GREEN,GREEN,green,03-13-2015,12:22:35
12008,real,36,incongruent,502,1,GREEN,BLUE,green,03-13-2015,12:22:35
12008,real,37,congruent,631,1,BLUE,BLUE,blue,03-13-2015,12:22:35
12008,real,38,congruent,465,1,BLUE,BLUE,blue,03-13-2015,12:22:35
12008,real,39,congruent,691,1,GREEN,GREEN,green,03-13-2015,12:22:35
12008,real,40,incongruent,1083,1,BLUE,GREEN,blue,03-13-2015,12:22:35
12008,real,41,congruent,844,1,GREEN,GREEN,green,03-13-2015,12:22:35
12008,real,42,incongruent,773,1,GREEN,BLUE,green,03-13-2015,12:22:35
12008,real,43,congruent,834,1,BLUE,BLUE,blue,03-13-2015,12:22:35
12008,real,44,incongruent,622,1,RED,BLUE,red,03-13-2015,12:22:35
12008,real,45,congruent,737,1,BLUE,BLUE,blue,03-13-2015,12:22:35
12008,real,46,incongruent,782,1,RED,BLUE,red,03-13-2015,12:22:35
12008,real,47,congruent,1147,1,BLUE,BLUE,blue,03-13-2015,12:22:35
12008,real,48,congruent,698,1,GREEN,GREEN,green,03-13-2015,12:22:35
12008,real,49,incongruent,810,1,GREEN,RED,green,03-13-2015,12:22:35
12008,real,50,congruent,798,1,RED,RED,red,03-13-2015,12:22:35
12008,real,51,congruent,618,0,BLUE,GREEN,green,03-13-2015,12:22:35
12008,real,52,congruent,607,1,RED,RED,red,03-13-2015,12:22:35
12008,real,53,congruent,599,1,BLUE,BLUE,blue,03-13-2015,12:22:35
12008,real,54,incongruent,671,1,GREEN,RED,green,03-13-2015,12:22:35
12008,real,55,congruent,732,1,BLUE,BLUE,blue,03-13-2015,12:22:35
12008,real,56,congruent,775,1,RED,RED,red,03-13-2015,12:22:35
12008,real,57,incongruent,801,1,BLUE,RED,blue,03-13-2015,12:22:35
12008,real,58,congruent,649,1,RED,RED,red,03-13-2015,12:22:35
12008,real,59,incongruent,816,1,RED,BLUE,red,03-13-2015,12:22:35
12008,real,60,incongruent,815,1,RED,GREEN,red,03-13-2015,12:22:35
12008,real,61,congruent,528,1,BLUE,BLUE,blue,03-13-2015,12:22:35
12008,real,62,congruent,602,1,RED,RED,red,03-13-2015,12:22:35
12008,real,63,incongruent,1003,1,BLUE,GREEN,blue,03-13-2015,12:22:35
12008,real,64,incongruent,809,1,BLUE,GREEN,blue,03-13-2015,12:22:35
12008,real,65,congruent,874,1,RED,RED,red,03-13-2015,12:22:35
12008,real,66,congruent,663,1,RED,RED,red,03-13-2015,12:22:35
12008,real,67,congruent,941,1,BLUE,BLUE,blue,03-13-2015,12:22:35
12008,real,68,incongruent,927,1,BLUE,RED,blue,03-13-2015,12:22:35
12008,real,69,incongruent,1339,1,RED,GREEN,red,03-13-2015,12:22:35
12008,real,70,incongruent,1070,1,BLUE,GREEN,blue,03-13-2015,12:22:35
12008,real,71,congruent,754,1,GREEN,GREEN,green,03-13-2015,12:22:35
12008,real,72,incongruent,788,1,RED,GREEN,red,03-13-2015,12:22:35
12008,real,73,congruent,1118,1,GREEN,GREEN,green,03-13-2015,12:22:35
12008,real,74,incongruent,1305,1,BLUE,GREEN,blue,03-13-2015,12:22:35
12008,real,75,incongruent,797,1,GREEN,BLUE,green,03-13-2015,12:22:35
12008,real,76,incongruent,654,1,RED,BLUE,red,03-13-2015,12:22:35
12008,real,77,congruent,1211,1,GREEN,GREEN,green,03-13-2015,12:22:35
12008,real,78,incongruent,971,1,GREEN,RED,green,03-13-2015,12:22:35
12008,real,79,congruent,604,1,RED,RED,red,03-13-2015,12:22:35
12008,real,80,incongruent,652,1,BLUE,GREEN,blue,03-13-2015,12:22:35
12008,real,81,incongruent,879,1,GREEN,RED,green,03-13-2015,12:22:35
12008,real,82,congruent,812,1,BLUE,BLUE,blue,03-13-2015,12:22:35
12008,real,83,congruent,709,1,GREEN,GREEN,green,03-13-2015,12:22:35
12008,real,84,incongruent,1055,1,BLUE,RED,blue,03-13-2015,12:22:35
12008,real,85,congruent,726,1,GREEN,GREEN,green,03-13-2015,12:22:35
12008,real,86,incongruent,665,1,GREEN,RED,green,03-13-2015,12:22:35
12008,real,87,congruent,728,1,BLUE,BLUE,blue,03-13-2015,12:22:35
12008,real,88,congruent,762,1,RED,RED,red,03-13-2015,12:22:35
12008,real,89,congruent,749,1,BLUE,BLUE,blue,03-13-2015,12:22:35
12008,real,90,congruent,631,1,BLUE,BLUE,blue,03-13-2015,12:22:35
12008,real,91,congruent,647,1,RED,RED,red,03-13-2015,12:22:35
12008,real,92,congruent,717,1,GREEN,GREEN,green,03-13-2015,12:22:35
12008,real,93,congruent,647,1,RED,RED,red,03-13-2015,12:22:35
12008,real,94,congruent,598,1,RED,RED,red,03-13-2015,12:22:35
12008,real,95,congruent,751,1,RED,RED,red,03-13-2015,12:22:35
12008,real,96,congruent,850,1,GREEN,GREEN,green,03-13-2015,12:22:35
12008,real,97,congruent,878,1,BLUE,BLUE,blue,03-13-2015,12:22:35
12008,real,98,congruent,851,1,BLUE,BLUE,blue,03-13-2015,12:22:35
12008,real,99,congruent,1273,1,BLUE,BLUE,blue,03-13-2015,12:22:35
12008,real,100,incongruent,1167,1,GREEN,BLUE,green,03-13-2015,12:22:35
12008,real,101,congruent,903,1,GREEN,GREEN,green,03-13-2015,12:22:35
12008,real,102,congruent,844,1,BLUE,BLUE,blue,03-13-2015,12:22:35
12008,real,103,incongruent,894,1,BLUE,RED,blue,03-13-2015,12:22:35
12008,real,104,congruent,483,1,BLUE,BLUE,blue,03-13-2015,12:22:35
12008,real,105,incongruent,920,1,GREEN,BLUE,green,03-13-2015,12:22:35
12008,real,106,congruent,539,1,BLUE,BLUE,blue,03-13-2015,12:22:35
12008,real,107,incongruent,982,1,GREEN,RED,green,03-13-2015,12:22:35
12008,real,108,congruent,487,1,GREEN,GREEN,green,03-13-2015,12:22:35
12008,real,109,incongruent,772,1,RED,GREEN,red,03-13-2015,12:22:35
12008,real,110,congruent,597,1,RED,RED,red,03-13-2015,12:22:35
12008,real,111,incongruent,685,1,RED,BLUE,red,03-13-2015,12:22:35
12008,real,112,congruent,554,1,GREEN,GREEN,green,03-13-2015,12:22:35
12008,real,113,incongruent,764,1,BLUE,RED,blue,03-13-2015,12:22:35
12008,real,114,congruent,518,1,RED,RED,red,03-13-2015,12:22:35
12008,real,115,congruent,801,1,GREEN,GREEN,green,03-13-2015,12:22:35
12008,real,116,congruent,705,1,BLUE,BLUE,blue,03-13-2015,12:22:35
12008,real,117,congruent,494,1,BLUE,BLUE,blue,03-13-2015,12:22:35
12008,real,118,congruent,738,1,GREEN,GREEN,green,03-13-2015,12:22:35
12008,real,119,congruent,757,1,BLUE,BLUE,blue,03-13-2015,12:22:35
12008,real,120,congruent,567,1,BLUE,BLUE,blue,03-13-2015,12:22:35
12008,real,121,congruent,600,1,RED,RED,red,03-13-2015,12:22:35
12008,real,122,incongruent,544,1,RED,BLUE,red,03-13-2015,12:22:35
12008,real,123,congruent,747,1,GREEN,GREEN,green,03-13-2015,12:22:35
12008,real,124,congruent,753,1,RED,RED,red,03-13-2015,12:22:35
12008,real,125,congruent,658,1,GREEN,GREEN,green,03-13-2015,12:22:35
12008,real,126,incongruent,1008,1,BLUE,RED,blue,03-13-2015,12:22:35
12008,real,127,congruent,815,1,RED,RED,red,03-13-2015,12:22:35
12008,real,128,congruent,752,1,RED,RED,red,03-13-2015,12:22:35
12008,real,129,congruent,673,1,GREEN,GREEN,green,03-13-2015,12:22:35
12008,real,130,congruent,781,1,RED,RED,red,03-13-2015,12:22:35
12008,real,131,congruent,839,1,BLUE,BLUE,blue,03-13-2015,12:22:35
12008,real,132,incongruent,910,1,BLUE,RED,blue,03-13-2015,12:22:35
12008,real,133,congruent,899,1,GREEN,GREEN,green,03-13-2015,12:22:35
12008,real,134,incongruent,688,1,GREEN,RED,green,03-13-2015,12:22:35
12008,real,135,congruent,764,1,BLUE,BLUE,blue,03-13-2015,12:22:35
12008,real,136,congruent,685,1,GREEN,GREEN,green,03-13-2015,12:22:35
12008,real,137,congruent,882,1,RED,RED,red,03-13-2015,12:22:35
12008,real,138,incongruent,751,1,RED,GREEN,red,03-13-2015,12:22:35
12008,real,139,congruent,791,1,BLUE,BLUE,blue,03-13-2015,12:22:35
12008,real,140,congruent,624,1,RED,RED,red,03-13-2015,12:22:35
12008,real,141,congruent,615,1,RED,RED,red,03-13-2015,12:22:35
12008,real,142,incongruent,615,1,BLUE,GREEN,blue,03-13-2015,12:22:35
12008,real,143,congruent,807,1,RED,RED,red,03-13-2015,12:22:35
12008,real,144,congruent,656,1,GREEN,GREEN,green,03-13-2015,12:22:35
12008,real,145,congruent,437,1,RED,RED,red,03-13-2015,12:22:35
12008,real,146,congruent,523,1,BLUE,BLUE,blue,03-13-2015,12:22:35
12008,real,147,incongruent,679,1,RED,BLUE,red,03-13-2015,12:22:35
12008,real,148,incongruent,508,1,RED,GREEN,red,03-13-2015,12:22:35
12008,real,149,congruent,528,1,BLUE,BLUE,blue,03-13-2015,12:22:35
12008,real,150,congruent,819,1,GREEN,GREEN,green,03-13-2015,12:22:35
12008,real,151,congruent,578,1,BLUE,BLUE,blue,03-13-2015,12:22:35
12008,real,152,congruent,627,1,RED,RED,red,03-13-2015,12:22:35
12008,real,153,incongruent,763,1,RED,GREEN,red,03-13-2015,12:22:35
12008,real,154,congruent,732,1,RED,RED,red,03-13-2015,12:22:35
12008,real,155,incongruent,837,1,GREEN,BLUE,green,03-13-2015,12:22:35
12008,real,156,congruent,613,1,RED,RED,red,03-13-2015,12:22:35
12008,real,157,congruent,587,1,GREEN,GREEN,green,03-13-2015,12:22:35
12008,real,158,congruent,460,1,GREEN,GREEN,green,03-13-2015,12:22:35
12008,real,159,congruent,530,1,RED,RED,red,03-13-2015,12:22:35
12008,real,160,congruent,861,1,GREEN,GREEN,green,03-13-2015,12:22:35
12008,real,161,congruent,571,1,BLUE,BLUE,blue,03-13-2015,12:22:35
12008,real,162,congruent,668,1,GREEN,GREEN,green,03-13-2015,12:22:35
12010,practice,1,congruent,1903,1,RED,RED,red,04-16-2015,16:21:53
12010,practice,2,incongruent,715,1,GREEN,BLUE,green,04-16-2015,16:21:53
12010,practice,3,congruent,504,1,RED,RED,red,04-16-2015,16:21:53
12010,practice,4,congruent,2698,1,BLUE,BLUE,blue,04-16-2015,16:21:53
12010,practice,5,congruent,423,1,BLUE,BLUE,blue,04-16-2015,16:21:53
12010,practice,6,incongruent,702,0,GREEN,GREEN,red,04-16-2015,16:21:53
12010,practice,7,incongruent,714,1,GREEN,RED,green,04-16-2015,16:21:53
12010,practice,8,congruent,711,1,BLUE,BLUE,blue,04-16-2015,16:21:53
12010,practice,9,congruent,851,1,BLUE,BLUE,blue,04-16-2015,16:21:53
12010,practice,10,congruent,585,1,GREEN,GREEN,green,04-16-2015,16:21:53
12010,practice,11,congruent,505,1,GREEN,GREEN,green,04-16-2015,16:21:53
12010,practice,12,incongruent,925,1,BLUE,RED,blue,04-16-2015,16:21:53
12010,practice,13,incongruent,785,1,BLUE,GREEN,blue,04-16-2015,16:21:53
12010,practice,14,congruent,569,1,GREEN,GREEN,green,04-16-2015,16:21:53
12010,practice,15,congruent,779,1,RED,RED,red,04-16-2015,16:21:53
12010,practice,16,congruent,405,1,RED,RED,red,04-16-2015,16:21:53
12010,practice,17,congruent,525,1,GREEN,GREEN,green,04-16-2015,16:21:53
12010,practice,18,incongruent,1040,1,RED,BLUE,red,04-16-2015,16:21:53
12010,real,1,congruent,646,1,BLUE,BLUE,blue,04-16-2015,16:21:53
12010,real,2,congruent,517,1,GREEN,GREEN,green,04-16-2015,16:21:53
12010,real,3,congruent,600,1,GREEN,GREEN,green,04-16-2015,16:21:53
12010,real,4,congruent,593,1,RED,RED,red,04-16-2015,16:21:53
12010,real,5,congruent,505,1,RED,RED,red,04-16-2015,16:21:53
12010,real,6,congruent,532,1,RED,RED,red,04-16-2015,16:21:53
12010,real,7,incongruent,679,1,GREEN,BLUE,green,04-16-2015,16:21:53
12010,real,8,congruent,941,1,RED,RED,red,04-16-2015,16:21:53
12010,real,9,incongruent,680,1,RED,BLUE,red,04-16-2015,16:21:53
12010,real,10,incongruent,493,1,RED,BLUE,red,04-16-2015,16:21:53
12010,real,11,incongruent,521,1,GREEN,RED,green,04-16-2015,16:21:53
12010,real,12,incongruent,756,1,GREEN,RED,green,04-16-2015,16:21:53
12010,real,13,incongruent,815,1,BLUE,GREEN,blue,04-16-2015,16:21:53
12010,real,14,congruent,711,1,BLUE,BLUE,blue,04-16-2015,16:21:53
12010,real,15,congruent,403,1,BLUE,BLUE,blue,04-16-2015,16:21:53
12010,real,16,congruent,420,1,BLUE,BLUE,blue,04-16-2015,16:21:53
12010,real,17,incongruent,618,1,GREEN,BLUE,green,04-16-2015,16:21:53
12010,real,18,congruent,362,1,RED,RED,red,04-16-2015,16:21:53
12010,real,19,congruent,549,1,GREEN,GREEN,green,04-16-2015,16:21:53
12010,real,20,incongruent,647,1,BLUE,RED,blue,04-16-2015,16:21:53
12010,real,21,congruent,838,1,RED,RED,red,04-16-2015,16:21:53
12010,real,22,congruent,557,1,GREEN,GREEN,green,04-16-2015,16:21:53
12010,real,23,congruent,694,1,BLUE,BLUE,blue,04-16-2015,16:21:53
12010,real,24,incongruent,466,1,BLUE,GREEN,blue,04-16-2015,16:21:53
12010,real,25,incongruent,360,1,BLUE,RED,blue,04-16-2015,16:21:53
12010,real,26,incongruent,498,1,GREEN,BLUE,green,04-16-2015,16:21:53
12010,real,27,congruent,319,1,BLUE,BLUE,blue,04-16-2015,16:21:53
12010,real,28,congruent,450,1,GREEN,GREEN,green,04-16-2015,16:21:53
12010,real,29,congruent,415,1,GREEN,GREEN,green,04-16-2015,16:21:53
12010,real,30,congruent,519,1,RED,RED,red,04-16-2015,16:21:53
12010,real,31,congruent,458,1,GREEN,GREEN,green,04-16-2015,16:21:53
12010,real,32,incongruent,969,1,RED,GREEN,red,04-16-2015,16:21:53
12010,real,33,incongruent,482,1,RED,GREEN,red,04-16-2015,16:21:53
12010,real,34,congruent,639,1,GREEN,GREEN,green,04-16-2015,16:21:53
12010,real,35,congruent,470,1,GREEN,GREEN,green,04-16-2015,16:21:53
12010,real,36,incongruent,507,1,GREEN,BLUE,green,04-16-2015,16:21:53
12010,real,37,congruent,591,1,BLUE,BLUE,blue,04-16-2015,16:21:53
12010,real,38,congruent,512,1,BLUE,BLUE,blue,04-16-2015,16:21:53
12010,real,39,congruent,628,1,GREEN,GREEN,green,04-16-2015,16:21:53
12010,real,40,incongruent,514,0,GREEN,GREEN,blue,04-16-2015,16:21:53
12010,real,41,congruent,527,1,GREEN,GREEN,green,04-16-2015,16:21:53
12010,real,42,incongruent,1634,1,GREEN,BLUE,green,04-16-2015,16:21:53
12010,real,43,congruent,416,1,BLUE,BLUE,blue,04-16-2015,16:21:53
12010,real,44,incongruent,304,1,RED,BLUE,red,04-16-2015,16:21:53
12010,real,45,congruent,483,1,BLUE,BLUE,blue,04-16-2015,16:21:53
12010,real,46,incongruent,672,0,BLUE,BLUE,red,04-16-2015,16:21:53
12010,real,47,congruent,549,1,BLUE,BLUE,blue,04-16-2015,16:21:53
12010,real,48,congruent,575,1,GREEN,GREEN,green,04-16-2015,16:21:53
12010,real,49,incongruent,745,1,GREEN,RED,green,04-16-2015,16:21:53
12010,real,50,congruent,644,1,RED,RED,red,04-16-2015,16:21:53
12010,real,51,congruent,602,1,GREEN,GREEN,green,04-16-2015,16:21:53
12010,real,52,congruent,579,1,RED,RED,red,04-16-2015,16:21:53
12010,real,53,congruent,619,1,BLUE,BLUE,blue,04-16-2015,16:21:53
12010,real,54,incongruent,610,1,GREEN,RED,green,04-16-2015,16:21:53
12010,real,55,congruent,626,1,BLUE,BLUE,blue,04-16-2015,16:21:53
12010,real,56,congruent,1410,1,RED,RED,red,04-16-2015,16:21:53
12010,real,57,incongruent,770,1,BLUE,RED,blue,04-16-2015,16:21:53
12010,real,58,congruent,731,0,BLUE,RED,red,04-16-2015,16:21:53
12010,real,59,incongruent,1710,1,RED,BLUE,red,04-16-2015,16:21:53
12010,real,60,incongruent,762,1,RED,GREEN,red,04-16-2015,16:21:53
12010,real,61,congruent,876,1,BLUE,BLUE,blue,04-16-2015,16:21:53
12010,real,62,congruent,1097,1,RED,RED,red,04-16-2015,16:21:53
12010,real,63,incongruent,1653,1,BLUE,GREEN,blue,04-16-2015,16:21:53
12010,real,64,incongruent,1393,1,BLUE,GREEN,blue,04-16-2015,16:21:53
12010,real,65,congruent,490,1,RED,RED,red,04-16-2015,16:21:53
12010,real,66,congruent,614,1,RED,RED,red,04-16-2015,16:21:53
12010,real,67,congruent,526,1,BLUE,BLUE,blue,04-16-2015,16:21:53
12010,real,68,incongruent,753,1,BLUE,RED,blue,04-16-2015,16:21:53
12010,real,69,incongruent,836,1,RED,GREEN,red,04-16-2015,16:21:53
12010,real,70,incongruent,666,1,BLUE,GREEN,blue,04-16-2015,16:21:53
12010,real,71,congruent,463,1,GREEN,GREEN,green,04-16-2015,16:21:53
12010,real,72,incongruent,1134,1,RED,GREEN,red,04-16-2015,16:21:53
12010,real,73,congruent,743,1,GREEN,GREEN,green,04-16-2015,16:21:53
12010,real,74,incongruent,738,1,BLUE,GREEN,blue,04-16-2015,16:21:53
12010,real,75,incongruent,1149,1,GREEN,BLUE,green,04-16-2015,16:21:53
12010,real,76,incongruent,720,1,RED,BLUE,red,04-16-2015,16:21:53
12010,real,77,congruent,2587,1,GREEN,GREEN,green,04-16-2015,16:21:53
12010,real,78,incongruent,531,1,GREEN,RED,green,04-16-2015,16:21:53
12010,real,79,congruent,647,1,RED,RED,red,04-16-2015,16:21:53
12010,real,80,incongruent,774,1,BLUE,GREEN,blue,04-16-2015,16:21:53
12010,real,81,incongruent,914,1,GREEN,RED,green,04-16-2015,16:21:53
12010,real,82,congruent,620,1,BLUE,BLUE,blue,04-16-2015,16:21:53
12010,real,83,congruent,604,1,GREEN,GREEN,green,04-16-2015,16:21:53
12010,real,84,incongruent,1421,1,BLUE,RED,blue,04-16-2015,16:21:53
12010,real,85,congruent,1940,1,GREEN,GREEN,green,04-16-2015,16:21:53
12010,real,86,incongruent,567,1,GREEN,RED,green,04-16-2015,16:21:53
12010,real,87,congruent,0,0,,BLUE,blue,04-16-2015,16:21:53
12010,real,88,congruent,832,1,RED,RED,red,04-16-2015,16:21:53
12010,real,89,congruent,512,1,BLUE,BLUE,blue,04-16-2015,16:21:53
12010,real,90,congruent,404,1,BLUE,BLUE,blue,04-16-2015,16:21:53
12010,real,91,congruent,684,1,RED,RED,red,04-16-2015,16:21:53
12010,real,92,congruent,480,1,GREEN,GREEN,green,04-16-2015,16:21:53
12010,real,93,congruent,565,1,RED,RED,red,04-16-2015,16:21:53
12010,real,94,congruent,599,1,RED,RED,red,04-16-2015,16:21:53
12010,real,95,congruent,432,1,RED,RED,red,04-16-2015,16:21:53
12010,real,96,congruent,511,1,GREEN,GREEN,green,04-16-2015,16:21:53
12010,real,97,congruent,507,1,BLUE,BLUE,blue,04-16-2015,16:21:53
12010,real,98,congruent,686,1,BLUE,BLUE,blue,04-16-2015,16:21:53
12010,real,99,congruent,732,1,BLUE,BLUE,blue,04-16-2015,16:21:53
12010,real,100,incongruent,679,1,GREEN,BLUE,green,04-16-2015,16:21:53
12010,real,101,congruent,469,1,GREEN,GREEN,green,04-16-2015,16:21:53
12010,real,102,congruent,490,1,BLUE,BLUE,blue,04-16-2015,16:21:53
12010,real,103,incongruent,488,1,BLUE,RED,blue,04-16-2015,16:21:53
12010,real,104,congruent,412,1,BLUE,BLUE,blue,04-16-2015,16:21:53
12010,real,105,incongruent,373,0,BLUE,BLUE,green,04-16-2015,16:21:53
12010,real,106,congruent,397,1,BLUE,BLUE,blue,04-16-2015,16:21:53
12010,real,107,incongruent,622,1,GREEN,RED,green,04-16-2015,16:21:53
12010,real,108,congruent,493,1,GREEN,GREEN,green,04-16-2015,16:21:53
12010,real,109,incongruent,570,1,RED,GREEN,red,04-16-2015,16:21:53
12010,real,110,congruent,723,1,RED,RED,red,04-16-2015,16:21:53
12010,real,111,incongruent,1767,1,RED,BLUE,red,04-16-2015,16:21:53
12010,real,112,congruent,584,1,GREEN,GREEN,green,04-16-2015,16:21:53
12010,real,113,incongruent,778,1,BLUE,RED,blue,04-16-2015,16:21:53
12010,real,114,congruent,1283,1,RED,RED,red,04-16-2015,16:21:53
12010,real,115,congruent,543,1,GREEN,GREEN,green,04-16-2015,16:21:53
12010,real,116,congruent,617,1,BLUE,BLUE,blue,04-16-2015,16:21:53
12010,real,117,congruent,648,1,BLUE,BLUE,blue,04-16-2015,16:21:53
12010,real,118,congruent,696,1,GREEN,GREEN,green,04-16-2015,16:21:53
12010,real,119,congruent,556,1,BLUE,BLUE,blue,04-16-2015,16:21:53
12010,real,120,congruent,598,1,BLUE,BLUE,blue,04-16-2015,16:21:53
12010,real,121,congruent,678,0,GREEN,RED,red,04-16-2015,16:21:53
12010,real,122,incongruent,460,0,GREEN,BLUE,red,04-16-2015,16:21:53
12010,real,123,congruent,521,1,GREEN,GREEN,green,04-16-2015,16:21:53
12010,real,124,congruent,881,1,RED,RED,red,04-16-2015,16:21:53
12010,real,125,congruent,495,1,GREEN,GREEN,green,04-16-2015,16:21:53
12010,real,126,incongruent,916,1,BLUE,RED,blue,04-16-2015,16:21:53
12010,real,127,congruent,1047,1,RED,RED,red,04-16-2015,16:21:53
12010,real,128,congruent,623,1,RED,RED,red,04-16-2015,16:21:53
12010,real,129,congruent,613,1,GREEN,GREEN,green,04-16-2015,16:21:53
12010,real,130,congruent,486,1,RED,RED,red,04-16-2015,16:21:53
12010,real,131,congruent,394,1,BLUE,BLUE,blue,04-16-2015,16:21:53
12010,real,132,incongruent,387,1,BLUE,RED,blue,04-16-2015,16:21:53
12010,real,133,congruent,492,1,GREEN,GREEN,green,04-16-2015,16:21:53
12010,real,134,incongruent,586,1,GREEN,RED,green,04-16-2015,16:21:53
12010,real,135,congruent,682,1,BLUE,BLUE,blue,04-16-2015,16:21:53
12010,real,136,congruent,543,1,GREEN,GREEN,green,04-16-2015,16:21:53
12010,real,137,congruent,2201,1,RED,RED,red,04-16-2015,16:21:53
12010,real,138,incongruent,1282,1,RED,GREEN,red,04-16-2015,16:21:53
12010,real,139,congruent,552,1,BLUE,BLUE,blue,04-16-2015,16:21:53
12010,real,140,congruent,456,1,RED,RED,red,04-16-2015,16:21:53
12010,real,141,congruent,519,1,RED,RED,red,04-16-2015,16:21:53
12010,real,142,incongruent,1131,0,GREEN,GREEN,blue,04-16-2015,16:21:53
12010,real,143,congruent,710,1,RED,RED,red,04-16-2015,16:21:53
12010,real,144,congruent,625,1,GREEN,GREEN,green,04-16-2015,16:21:53
12010,real,145,congruent,537,1,RED,RED,red,04-16-2015,16:21:53
12010,real,146,congruent,923,1,BLUE,BLUE,blue,04-16-2015,16:21:53
12010,real,147,incongruent,1078,1,RED,BLUE,red,04-16-2015,16:21:53
12010,real,148,incongruent,668,1,RED,GREEN,red,04-16-2015,16:21:53
12010,real,149,congruent,0,0,,BLUE,blue,04-16-2015,16:21:53
12010,real,150,congruent,842,1,GREEN,GREEN,green,04-16-2015,16:21:53
12010,real,151,congruent,520,1,BLUE,BLUE,blue,04-16-2015,16:21:53
12010,real,152,congruent,828,1,RED,RED,red,04-16-2015,16:21:53
12010,real,153,incongruent,956,1,RED,GREEN,red,04-16-2015,16:21:53
12010,real,154,congruent,0,0,,RED,red,04-16-2015,16:21:53
12010,real,155,incongruent,986,1,GREEN,BLUE,green,04-16-2015,16:21:53
12010,real,156,congruent,548,1,RED,RED,red,04-16-2015,16:21:53
12010,real,157,congruent,590,1,GREEN,GREEN,green,04-16-2015,16:21:53
12010,real,158,congruent,478,1,GREEN,GREEN,green,04-16-2015,16:21:53
12010,real,159,congruent,564,1,RED,RED,red,04-16-2015,16:21:53
12010,real,160,congruent,558,1,GREEN,GREEN,green,04-16-2015,16:21:53
12010,real,161,congruent,569,1,BLUE,BLUE,blue,04-16-2015,16:21:53
12010,real,162,congruent,571,1,GREEN,GREEN,green,04-16-2015,16:21:53
12012,practice,1,congruent,654,1,RED,RED,red,03-12-2015,10:26:17
12012,practice,2,incongruent,732,1,GREEN,BLUE,green,03-12-2015,10:26:17
12012,practice,3,congruent,550,1,RED,RED,red,03-12-2015,10:26:17
12012,practice,4,congruent,456,1,BLUE,BLUE,blue,03-12-2015,10:26:17
12012,practice,5,congruent,655,1,BLUE,BLUE,blue,03-12-2015,10:26:17
12012,practice,6,incongruent,828,0,GREEN,GREEN,red,03-12-2015,10:26:17
12012,practice,7,incongruent,660,1,GREEN,RED,green,03-12-2015,10:26:17
12012,practice,8,congruent,578,1,BLUE,BLUE,blue,03-12-2015,10:26:17
12012,practice,9,congruent,964,1,BLUE,BLUE,blue,03-12-2015,10:26:17
12012,practice,10,congruent,694,1,GREEN,GREEN,green,03-12-2015,10:26:17
12012,practice,11,congruent,690,1,GREEN,GREEN,green,03-12-2015,10:26:17
12012,practice,12,incongruent,1150,1,BLUE,RED,blue,03-12-2015,10:26:17
12012,practice,13,incongruent,1497,1,BLUE,GREEN,blue,03-12-2015,10:26:17
12012,practice,14,congruent,630,1,GREEN,GREEN,green,03-12-2015,10:26:17
12012,practice,15,congruent,501,1,RED,RED,red,03-12-2015,10:26:17
12012,practice,16,congruent,698,1,RED,RED,red,03-12-2015,10:26:17
12012,practice,17,congruent,518,1,GREEN,GREEN,green,03-12-2015,10:26:17
12012,practice,18,incongruent,1305,1,RED,BLUE,red,03-12-2015,10:26:17
12012,real,1,congruent,893,1,BLUE,BLUE,blue,03-12-2015,10:26:17
12012,real,2,congruent,546,1,GREEN,GREEN,green,03-12-2015,10:26:17
12012,real,3,congruent,549,1,GREEN,GREEN,green,03-12-2015,10:26:17
12012,real,4,congruent,576,1,RED,RED,red,03-12-2015,10:26:17
12012,real,5,congruent,650,1,RED,RED,red,03-12-2015,10:26:17
12012,real,6,congruent,590,1,RED,RED,red,03-12-2015,10:26:17
12012,real,7,incongruent,1039,1,GREEN,BLUE,green,03-12-2015,10:26:17
12012,real,8,congruent,613,1,RED,RED,red,03-12-2015,10:26:17
12012,real,9,incongruent,1102,0,BLUE,BLUE,red,03-12-2015,10:26:17
12012,real,10,incongruent,993,1,RED,BLUE,red,03-12-2015,10:26:17
12012,real,11,incongruent,1386,1,GREEN,RED,green,03-12-2015,10:26:17
12012,real,12,incongruent,642,1,GREEN,RED,green,03-12-2015,10:26:17
12012,real,13,incongruent,1009,1,BLUE,GREEN,blue,03-12-2015,10:26:17
12012,real,14,congruent,705,1,BLUE,BLUE,blue,03-12-2015,10:26:17
12012,real,15,congruent,637,1,BLUE,BLUE,blue,03-12-2015,10:26:17
12012,real,16,congruent,692,1,BLUE,BLUE,blue,03-12-2015,10:26:17
12012,real,17,incongruent,513,1,GREEN,BLUE,green,03-12-2015,10:26:17
12012,real,18,congruent,548,1,RED,RED,red,03-12-2015,10:26:17
12012,real,19,congruent,631,1,GREEN,GREEN,green,03-12-2015,10:26:17
12012,real,20,incongruent,631,1,BLUE,RED,blue,03-12-2015,10:26:17
12012,real,21,congruent,534,1,RED,RED,red,03-12-2015,10:26:17
12012,real,22,congruent,504,1,GREEN,GREEN,green,03-12-2015,10:26:17
12012,real,23,congruent,671,1,BLUE,BLUE,blue,03-12-2015,10:26:17
12012,real,24,incongruent,780,1,BLUE,GREEN,blue,03-12-2015,10:26:17
12012,real,25,incongruent,485,1,BLUE,RED,blue,03-12-2015,10:26:17
12012,real,26,incongruent,522,1,GREEN,BLUE,green,03-12-2015,10:26:17
12012,real,27,congruent,822,1,BLUE,BLUE,blue,03-12-2015,10:26:17
12012,real,28,congruent,534,0,BLUE,GREEN,green,03-12-2015,10:26:17
12012,real,29,congruent,689,1,GREEN,GREEN,green,03-12-2015,10:26:17
12012,real,30,congruent,573,1,RED,RED,red,03-12-2015,10:26:17
12012,real,31,congruent,893,1,GREEN,GREEN,green,03-12-2015,10:26:17
12012,real,32,incongruent,634,1,RED,GREEN,red,03-12-2015,10:26:17
12012,real,33,incongruent,657,1,RED,GREEN,red,03-12-2015,10:26:17
12012,real,34,congruent,615,1,GREEN,GREEN,green,03-12-2015,10:26:17
12012,real,35,congruent,624,1,GREEN,GREEN,green,03-12-2015,10:26:17
12012,real,36,incongruent,527,1,GREEN,BLUE,green,03-12-2015,10:26:17
12012,real,37,congruent,610,1,BLUE,BLUE,blue,03-12-2015,10:26:17
12012,real,38,congruent,801,1,BLUE,BLUE,blue,03-12-2015,10:26:17
12012,real,39,congruent,601,1,GREEN,GREEN,green,03-12-2015,10:26:17
12012,real,40,incongruent,649,1,BLUE,GREEN,blue,03-12-2015,10:26:17
12012,real,41,congruent,463,1,GREEN,GREEN,green,03-12-2015,10:26:17
12012,real,42,incongruent,458,1,GREEN,BLUE,green,03-12-2015,10:26:17
12012,real,43,congruent,472,1,BLUE,BLUE,blue,03-12-2015,10:26:17
12012,real,44,incongruent,662,0,GREEN,BLUE,red,03-12-2015,10:26:17
12012,real,45,congruent,651,1,BLUE,BLUE,blue,03-12-2015,10:26:17
12012,real,46,incongruent,561,0,GREEN,BLUE,red,03-12-2015,10:26:17
12012,real,47,congruent,538,1,BLUE,BLUE,blue,03-12-2015,10:26:17
12012,real,48,congruent,597,1,GREEN,GREEN,green,03-12-2015,10:26:17
12012,real,49,incongruent,573,1,GREEN,RED,green,03-12-2015,10:26:17
12012,real,50,congruent,575,0,GREEN,RED,red,03-12-2015,10:26:17
12012,real,51,congruent,504,1,GREEN,GREEN,green,03-12-2015,10:26:17
12012,real,52,congruent,499,1,RED,RED,red,03-12-2015,10:26:17
12012,real,53,congruent,576,1,BLUE,BLUE,blue,03-12-2015,10:26:17
12012,real,54,incongruent,522,1,GREEN,RED,green,03-12-2015,10:26:17
12012,real,55,congruent,508,1,BLUE,BLUE,blue,03-12-2015,10:26:17
12012,real,56,congruent,544,1,RED,RED,red,03-12-2015,10:26:17
12012,real,57,incongruent,611,1,BLUE,RED,blue,03-12-2015,10:26:17
12012,real,58,congruent,467,0,GREEN,RED,red,03-12-2015,10:26:17
12012,real,59,incongruent,1088,1,RED,BLUE,red,03-12-2015,10:26:17
12012,real,60,incongruent,517,1,RED,GREEN,red,03-12-2015,10:26:17
12012,real,61,congruent,641,1,BLUE,BLUE,blue,03-12-2015,10:26:17
12012,real,62,congruent,1063,1,RED,RED,red,03-12-2015,10:26:17
12012,real,63,incongruent,724,1,BLUE,GREEN,blue,03-12-2015,10:26:17
12012,real,64,incongruent,1574,1,BLUE,GREEN,blue,03-12-2015,10:26:17
12012,real,65,congruent,632,1,RED,RED,red,03-12-2015,10:26:17
12012,real,66,congruent,655,1,RED,RED,red,03-12-2015,10:26:17
12012,real,67,congruent,612,1,BLUE,BLUE,blue,03-12-2015,10:26:17
12012,real,68,incongruent,1013,1,BLUE,RED,blue,03-12-2015,10:26:17
12012,real,69,incongruent,668,1,RED,GREEN,red,03-12-2015,10:26:17
12012,real,70,incongruent,826,1,BLUE,GREEN,blue,03-12-2015,10:26:17
12012,real,71,congruent,1305,1,GREEN,GREEN,green,03-12-2015,10:26:17
12012,real,72,incongruent,854,0,BLUE,GREEN,red,03-12-2015,10:26:17
12012,real,73,congruent,730,1,GREEN,GREEN,green,03-12-2015,10:26:17
12012,real,74,incongruent,630,1,BLUE,GREEN,blue,03-12-2015,10:26:17
12012,real,75,incongruent,661,1,GREEN,BLUE,green,03-12-2015,10:26:17
12012,real,76,incongruent,475,1,RED,BLUE,red,03-12-2015,10:26:17
12012,real,77,congruent,800,1,GREEN,GREEN,green,03-12-2015,10:26:17
12012,real,78,incongruent,593,1,GREEN,RED,green,03-12-2015,10:26:17
12012,real,79,congruent,545,1,RED,RED,red,03-12-2015,10:26:17
12012,real,80,incongruent,659,1,BLUE,GREEN,blue,03-12-2015,10:26:17
12012,real,81,incongruent,1051,1,GREEN,RED,green,03-12-2015,10:26:17
12012,real,82,congruent,594,1,BLUE,BLUE,blue,03-12-2015,10:26:17
12012,real,83,congruent,498,1,GREEN,GREEN,green,03-12-2015,10:26:17
12012,real,84,incongruent,742,0,GREEN,RED,blue,03-12-2015,10:26:17
12012,real,85,congruent,600,1,GREEN,GREEN,green,03-12-2015,10:26:17
12012,real,86,incongruent,865,1,GREEN,RED,green,03-12-2015,10:26:17
12012,real,87,congruent,822,1,BLUE,BLUE,blue,03-12-2015,10:26:17
12012,real,88,congruent,614,1,RED,RED,red,03-12-2015,10:26:17
12012,real,89,congruent,767,1,BLUE,BLUE,blue,03-12-2015,10:26:17
12012,real,90,congruent,728,1,BLUE,BLUE,blue,03-12-2015,10:26:17
12012,real,91,congruent,530,1,RED,RED,red,03-12-2015,10:26:17
12012,real,92,congruent,606,1,GREEN,GREEN,green,03-12-2015,10:26:17
12012,real,93,congruent,590,1,RED,RED,red,03-12-2015,10:26:17
12012,real,94,congruent,527,1,RED,RED,red,03-12-2015,10:26:17
12012,real,95,congruent,507,1,RED,RED,red,03-12-2015,10:26:17
12012,real,96,congruent,823,1,GREEN,GREEN,green,03-12-2015,10:26:17
12012,real,97,congruent,806,1,BLUE,BLUE,blue,03-12-2015,10:26:17
12012,real,98,congruent,957,1,BLUE,BLUE,blue,03-12-2015,10:26:17
12012,real,99,congruent,560,1,BLUE,BLUE,blue,03-12-2015,10:26:17
12012,real,100,incongruent,834,1,GREEN,BLUE,green,03-12-2015,10:26:17
12012,real,101,congruent,505,1,GREEN,GREEN,green,03-12-2015,10:26:17
12012,real,102,congruent,557,1,BLUE,BLUE,blue,03-12-2015,10:26:17
12012,real,103,incongruent,1232,1,BLUE,RED,blue,03-12-2015,10:26:17
12012,real,104,congruent,487,1,BLUE,BLUE,blue,03-12-2015,10:26:17
12012,real,105,incongruent,636,1,GREEN,BLUE,green,03-12-2015,10:26:17
12012,real,106,congruent,538,1,BLUE,BLUE,blue,03-12-2015,10:26:17
12012,real,107,incongruent,710,1,GREEN,RED,green,03-12-2015,10:26:17
12012,real,108,congruent,625,1,GREEN,GREEN,green,03-12-2015,10:26:17
12012,real,109,incongruent,1496,1,RED,GREEN,red,03-12-2015,10:26:17
12012,real,110,congruent,509,1,RED,RED,red,03-12-2015,10:26:17
12012,real,111,incongruent,649,1,RED,BLUE,red,03-12-2015,10:26:17
12012,real,112,congruent,807,1,GREEN,GREEN,green,03-12-2015,10:26:17
12012,real,113,incongruent,1200,1,BLUE,RED,blue,03-12-2015,10:26:17
12012,real,114,congruent,1192,1,RED,RED,red,03-12-2015,10:26:17
12012,real,115,congruent,552,1,GREEN,GREEN,green,03-12-2015,10:26:17
12012,real,116,congruent,802,1,BLUE,BLUE,blue,03-12-2015,10:26:17
12012,real,117,congruent,890,1,BLUE,BLUE,blue,03-12-2015,10:26:17
12012,real,118,congruent,576,1,GREEN,GREEN,green,03-12-2015,10:26:17
12012,real,119,congruent,585,1,BLUE,BLUE,blue,03-12-2015,10:26:17
12012,real,120,congruent,673,1,BLUE,BLUE,blue,03-12-2015,10:26:17
12012,real,121,congruent,1181,1,RED,RED,red,03-12-2015,10:26:17
12012,real,122,incongruent,831,1,RED,BLUE,red,03-12-2015,10:26:17
12012,real,123,congruent,575,1,GREEN,GREEN,green,03-12-2015,10:26:17
12012,real,124,congruent,851,1,RED,RED,red,03-12-2015,10:26:17
12012,real,125,congruent,656,1,GREEN,GREEN,green,03-12-2015,10:26:17
12012,real,126,incongruent,911,1,BLUE,RED,blue,03-12-2015,10:26:17
12012,real,127,congruent,403,1,RED,RED,red,03-12-2015,10:26:17
12012,real,128,congruent,659,1,RED,RED,red,03-12-2015,10:26:17
12012,real,129,congruent,457,1,GREEN,GREEN,green,03-12-2015,10:26:17
12012,real,130,congruent,654,1,RED,RED,red,03-12-2015,10:26:17
12012,real,131,congruent,573,1,BLUE,BLUE,blue,03-12-2015,10:26:17
12012,real,132,incongruent,751,1,BLUE,RED,blue,03-12-2015,10:26:17
12012,real,133,congruent,537,1,GREEN,GREEN,green,03-12-2015,10:26:17
12012,real,134,incongruent,628,1,GREEN,RED,green,03-12-2015,10:26:17
12012,real,135,congruent,531,1,BLUE,BLUE,blue,03-12-2015,10:26:17
12012,real,136,congruent,495,1,GREEN,GREEN,green,03-12-2015,10:26:17
12012,real,137,congruent,571,1,RED,RED,red,03-12-2015,10:26:17
12012,real,138,incongruent,420,1,RED,GREEN,red,03-12-2015,10:26:17
12012,real,139,congruent,738,1,BLUE,BLUE,blue,03-12-2015,10:26:17
12012,real,140,congruent,653,1,RED,RED,red,03-12-2015,10:26:17
12012,real,141,congruent,690,1,RED,RED,red,03-12-2015,10:26:17
12012,real,142,incongruent,767,1,BLUE,GREEN,blue,03-12-2015,10:26:17
12012,real,143,congruent,585,1,RED,RED,red,03-12-2015,10:26:17
12012,real,144,congruent,601,1,GREEN,GREEN,green,03-12-2015,10:26:17
12012,real,145,congruent,530,1,RED,RED,red,03-12-2015,10:26:17
12012,real,146,congruent,853,1,BLUE,BLUE,blue,03-12-2015,10:26:17
12012,real,147,incongruent,627,1,RED,BLUE,red,03-12-2015,10:26:17
12012,real,148,incongruent,698,1,RED,GREEN,red,03-12-2015,10:26:17
12012,real,149,congruent,854,1,BLUE,BLUE,blue,03-12-2015,10:26:17
12012,real,150,congruent,733,1,GREEN,GREEN,green,03-12-2015,10:26:17
12012,real,151,congruent,575,1,BLUE,BLUE,blue,03-12-2015,10:26:17
12012,real,152,congruent,592,1,RED,RED,red,03-12-2015,10:26:17
12012,real,153,incongruent,553,1,RED,GREEN,red,03-12-2015,10:26:17
12012,real,154,congruent,579,1,RED,RED,red,03-12-2015,10:26:17
12012,real,155,incongruent,778,1,GREEN,BLUE,green,03-12-2015,10:26:17
12012,real,156,congruent,555,1,RED,RED,red,03-12-2015,10:26:17
12012,real,157,congruent,566,1,GREEN,GREEN,green,03-12-2015,10:26:17
12012,real,158,congruent,472,1,GREEN,GREEN,green,03-12-2015,10:26:17
12012,real,159,congruent,684,1,RED,RED,red,03-12-2015,10:26:17
12012,real,160,congruent,592,1,GREEN,GREEN,green,03-12-2015,10:26:17
12012,real,161,congruent,537,1,BLUE,BLUE,blue,03-12-2015,10:26:17
12012,real,162,congruent,588,1,GREEN,GREEN,green,03-12-2015,10:26:17
12013,practice,1,congruent,1003,1,RED,RED,red,03-25-2015,15:01:48
12013,practice,2,incongruent,1001,1,GREEN,BLUE,green,03-25-2015,15:01:48
12013,practice,3,congruent,1174,1,RED,RED,red,03-25-2015,15:01:48
12013,practice,4,congruent,765,1,BLUE,BLUE,blue,03-25-2015,15:01:48
12013,practice,5,congruent,660,1,BLUE,BLUE,blue,03-25-2015,15:01:48
12013,practice,6,incongruent,1328,1,RED,GREEN,red,03-25-2015,15:01:48
12013,practice,7,incongruent,702,1,GREEN,RED,green,03-25-2015,15:01:48
12013,practice,8,congruent,553,1,BLUE,BLUE,blue,03-25-2015,15:01:48
12013,practice,9,congruent,407,1,BLUE,BLUE,blue,03-25-2015,15:01:48
12013,practice,10,congruent,542,1,GREEN,GREEN,green,03-25-2015,15:01:48
12013,practice,11,congruent,509,1,GREEN,GREEN,green,03-25-2015,15:01:48
12013,practice,12,incongruent,1438,1,BLUE,RED,blue,03-25-2015,15:01:48
12013,practice,13,incongruent,602,1,BLUE,GREEN,blue,03-25-2015,15:01:48
12013,practice,14,congruent,534,1,GREEN,GREEN,green,03-25-2015,15:01:48
12013,practice,15,congruent,439,1,RED,RED,red,03-25-2015,15:01:48
12013,practice,16,congruent,476,1,RED,RED,red,03-25-2015,15:01:48
12013,practice,17,congruent,590,1,GREEN,GREEN,green,03-25-2015,15:01:48
12013,practice,18,incongruent,556,1,RED,BLUE,red,03-25-2015,15:01:48
12013,real,1,congruent,1134,1,BLUE,BLUE,blue,03-25-2015,15:01:48
12013,real,2,congruent,996,1,GREEN,GREEN,green,03-25-2015,15:01:48
12013,real,3,congruent,640,1,GREEN,GREEN,green,03-25-2015,15:01:48
12013,real,4,congruent,883,1,RED,RED,red,03-25-2015,15:01:48
12013,real,5,congruent,668,1,RED,RED,red,03-25-2015,15:01:48
12013,real,6,congruent,557,1,RED,RED,red,03-25-2015,15:01:48
12013,real,7,incongruent,651,1,GREEN,BLUE,green,03-25-2015,15:01:48
12013,real,8,congruent,605,1,RED,RED,red,03-25-2015,15:01:48
12013,real,9,incongruent,512,1,RED,BLUE,red,03-25-2015,15:01:48
12013,real,10,incongruent,536,1,RED,BLUE,red,03-25-2015,15:01:48
12013,real,11,incongruent,703,1,GREEN,RED,green,03-25-2015,15:01:48
12013,real,12,incongruent,896,1,GREEN,RED,green,03-25-2015,15:01:48
12013,real,13,incongruent,751,1,BLUE,GREEN,blue,03-25-2015,15:01:48
12013,real,14,congruent,597,1,BLUE,BLUE,blue,03-25-2015,15:01:48
12013,real,15,congruent,561,1,BLUE,BLUE,blue,03-25-2015,15:01:48
12013,real,16,congruent,519,1,BLUE,BLUE,blue,03-25-2015,15:01:48
12013,real,17,incongruent,677,1,GREEN,BLUE,green,03-25-2015,15:01:48
12013,real,18,congruent,576,1,RED,RED,red,03-25-2015,15:01:48
12013,real,19,congruent,683,1,GREEN,GREEN,green,03-25-2015,15:01:48
12013,real,20,incongruent,740,1,BLUE,RED,blue,03-25-2015,15:01:48
12013,real,21,congruent,843,1,RED,RED,red,03-25-2015,15:01:48
12013,real,22,congruent,684,1,GREEN,GREEN,green,03-25-2015,15:01:48
12013,real,23,congruent,1222,1,BLUE,BLUE,blue,03-25-2015,15:01:48
12013,real,24,incongruent,1337,1,BLUE,GREEN,blue,03-25-2015,15:01:48
12013,real,25,incongruent,647,1,BLUE,RED,blue,03-25-2015,15:01:48
12013,real,26,incongruent,529,1,GREEN,BLUE,green,03-25-2015,15:01:48
12013,real,27,congruent,632,1,BLUE,BLUE,blue,03-25-2015,15:01:48
12013,real,28,congruent,762,1,GREEN,GREEN,green,03-25-2015,15:01:48
12013,real,29,congruent,712,1,GREEN,GREEN,green,03-25-2015,15:01:48
12013,real,30,congruent,576,1,RED,RED,red,03-25-2015,15:01:48
12013,real,31,congruent,685,1,GREEN,GREEN,green,03-25-2015,15:01:48
12013,real,32,incongruent,813,1,RED,GREEN,red,03-25-2015,15:01:48
12013,real,33,incongruent,760,1,RED,GREEN,red,03-25-2015,15:01:48
12013,real,34,congruent,599,1,GREEN,GREEN,green,03-25-2015,15:01:48
12013,real,35,congruent,778,1,GREEN,GREEN,green,03-25-2015,15:01:48
12013,real,36,incongruent,1295,1,GREEN,BLUE,green,03-25-2015,15:01:48
12013,real,37,congruent,719,1,BLUE,BLUE,blue,03-25-2015,15:01:48
12013,real,38,congruent,471,1,BLUE,BLUE,blue,03-25-2015,15:01:48
12013,real,39,congruent,758,1,GREEN,GREEN,green,03-25-2015,15:01:48
12013,real,40,incongruent,1212,1,BLUE,GREEN,blue,03-25-2015,15:01:48
12013,real,41,congruent,600,1,GREEN,GREEN,green,03-25-2015,15:01:48
12013,real,42,incongruent,916,1,GREEN,BLUE,green,03-25-2015,15:01:48
12013,real,43,congruent,1181,1,BLUE,BLUE,blue,03-25-2015,15:01:48
12013,real,44,incongruent,698,1,RED,BLUE,red,03-25-2015,15:01:48
12013,real,45,congruent,1594,0,GREEN,BLUE,blue,03-25-2015,15:01:48
12013,real,46,incongruent,1128,1,RED,BLUE,red,03-25-2015,15:01:48
12013,real,47,congruent,2058,1,BLUE,BLUE,blue,03-25-2015,15:01:48
12013,real,48,congruent,584,1,GREEN,GREEN,green,03-25-2015,15:01:48
12013,real,49,incongruent,1233,1,GREEN,RED,green,03-25-2015,15:01:48
12013,real,50,congruent,888,1,RED,RED,red,03-25-2015,15:01:48
12013,real,51,congruent,1620,1,GREEN,GREEN,green,03-25-2015,15:01:48
12013,real,52,congruent,787,1,RED,RED,red,03-25-2015,15:01:48
12013,real,53,congruent,1652,1,BLUE,BLUE,blue,03-25-2015,15:01:48
12013,real,54,incongruent,1266,1,GREEN,RED,green,03-25-2015,15:01:48
12013,real,55,congruent,631,0,RED,BLUE,blue,03-25-2015,15:01:48
12013,real,56,congruent,790,1,RED,RED,red,03-25-2015,15:01:48
12013,real,57,incongruent,1231,1,BLUE,RED,blue,03-25-2015,15:01:48
12013,real,58,congruent,1429,1,RED,RED,red,03-25-2015,15:01:48
12013,real,59,incongruent,828,1,RED,BLUE,red,03-25-2015,15:01:48
12013,real,60,incongruent,603,1,RED,GREEN,red,03-25-2015,15:01:48
12013,real,61,congruent,964,1,BLUE,BLUE,blue,03-25-2015,15:01:48
12013,real,62,congruent,652,1,RED,RED,red,03-25-2015,15:01:48
12013,real,63,incongruent,778,1,BLUE,GREEN,blue,03-25-2015,15:01:48
12013,real,64,incongruent,730,1,BLUE,GREEN,blue,03-25-2015,15:01:48
12013,real,65,congruent,526,1,RED,RED,red,03-25-2015,15:01:48
12013,real,66,congruent,490,1,RED,RED,red,03-25-2015,15:01:48
12013,real,67,congruent,583,1,BLUE,BLUE,blue,03-25-2015,15:01:48
12013,real,68,incongruent,727,1,BLUE,RED,blue,03-25-2015,15:01:48
12013,real,69,incongruent,634,1,RED,GREEN,red,03-25-2015,15:01:48
12013,real,70,incongruent,873,1,BLUE,GREEN,blue,03-25-2015,15:01:48
12013,real,71,congruent,710,0,RED,GREEN,green,03-25-2015,15:01:48
12013,real,72,incongruent,808,1,RED,GREEN,red,03-25-2015,15:01:48
12013,real,73,congruent,961,1,GREEN,GREEN,green,03-25-2015,15:01:48
12013,real,74,incongruent,786,1,BLUE,GREEN,blue,03-25-2015,15:01:48
12013,real,75,incongruent,1019,1,GREEN,BLUE,green,03-25-2015,15:01:48
12013,real,76,incongruent,994,1,RED,BLUE,red,03-25-2015,15:01:48
12013,real,77,congruent,1139,1,GREEN,GREEN,green,03-25-2015,15:01:48
12013,real,78,incongruent,886,1,GREEN,RED,green,03-25-2015,15:01:48
12013,real,79,congruent,843,1,RED,RED,red,03-25-2015,15:01:48
12013,real,80,incongruent,1266,1,BLUE,GREEN,blue,03-25-2015,15:01:48
12013,real,81,incongruent,606,1,GREEN,RED,green,03-25-2015,15:01:48
12013,real,82,congruent,582,1,BLUE,BLUE,blue,03-25-2015,15:01:48
12013,real,83,congruent,1399,1,GREEN,GREEN,green,03-25-2015,15:01:48
12013,real,84,incongruent,951,1,BLUE,RED,blue,03-25-2015,15:01:48
12013,real,85,congruent,834,1,GREEN,GREEN,green,03-25-2015,15:01:48
12013,real,86,incongruent,625,1,GREEN,RED,green,03-25-2015,15:01:48
12013,real,87,congruent,783,1,BLUE,BLUE,blue,03-25-2015,15:01:48
12013,real,88,congruent,576,1,RED,RED,red,03-25-2015,15:01:48
12013,real,89,congruent,841,1,BLUE,BLUE,blue,03-25-2015,15:01:48
12013,real,90,congruent,640,1,BLUE,BLUE,blue,03-25-2015,15:01:48
12013,real,91,congruent,798,1,RED,RED,red,03-25-2015,15:01:48
12013,real,92,congruent,623,1,GREEN,GREEN,green,03-25-2015,15:01:48
12013,real,93,congruent,974,1,RED,RED,red,03-25-2015,15:01:48
12013,real,94,congruent,592,1,RED,RED,red,03-25-2015,15:01:48
12013,real,95,congruent,441,1,RED,RED,red,03-25-2015,15:01:48
12013,real,96,congruent,967,1,GREEN,GREEN,green,03-25-2015,15:01:48
12013,real,97,congruent,1057,1,BLUE,BLUE,blue,03-25-2015,15:01:48
12013,real,98,congruent,687,1,BLUE,BLUE,blue,03-25-2015,15:01:48
12013,real,99,congruent,620,1,BLUE,BLUE,blue,03-25-2015,15:01:48
12013,real,100,incongruent,762,1,GREEN,BLUE,green,03-25-2015,15:01:48
12013,real,101,congruent,981,1,GREEN,GREEN,green,03-25-2015,15:01:48
12013,real,102,congruent,934,1,BLUE,BLUE,blue,03-25-2015,15:01:48
12013,real,103,incongruent,789,1,BLUE,RED,blue,03-25-2015,15:01:48
12013,real,104,congruent,510,1,BLUE,BLUE,blue,03-25-2015,15:01:48
12013,real,105,incongruent,881,1,GREEN,BLUE,green,03-25-2015,15:01:48
12013,real,106,congruent,919,1,BLUE,BLUE,blue,03-25-2015,15:01:48
12013,real,107,incongruent,722,1,GREEN,RED,green,03-25-2015,15:01:48
12013,real,108,congruent,670,1,GREEN,GREEN,green,03-25-2015,15:01:48
12013,real,109,incongruent,803,1,RED,GREEN,red,03-25-2015,15:01:48
12013,real,110,congruent,852,1,RED,RED,red,03-25-2015,15:01:48
12013,real,111,incongruent,705,1,RED,BLUE,red,03-25-2015,15:01:48
12013,real,112,congruent,717,0,BLUE,GREEN,green,03-25-2015,15:01:48
12013,real,113,incongruent,1096,1,BLUE,RED,blue,03-25-2015,15:01:48
12013,real,114,congruent,1125,1,RED,RED,red,03-25-2015,15:01:48
12013,real,115,congruent,1063,1,GREEN,GREEN,green,03-25-2015,15:01:48
12013,real,116,congruent,990,1,BLUE,BLUE,blue,03-25-2015,15:01:48
12013,real,117,congruent,815,1,BLUE,BLUE,blue,03-25-2015,15:01:48
12013,real,118,congruent,950,1,GREEN,GREEN,green,03-25-2015,15:01:48
12013,real,119,congruent,880,1,BLUE,BLUE,blue,03-25-2015,15:01:48
12013,real,120,congruent,701,1,BLUE,BLUE,blue,03-25-2015,15:01:48
12013,real,121,congruent,810,1,RED,RED,red,03-25-2015,15:01:48
12013,real,122,incongruent,873,1,RED,BLUE,red,03-25-2015,15:01:48
12013,real,123,congruent,917,1,GREEN,GREEN,green,03-25-2015,15:01:48
12013,real,124,congruent,925,1,RED,RED,red,03-25-2015,15:01:48
12013,real,125,congruent,936,1,GREEN,GREEN,green,03-25-2015,15:01:48
12013,real,126,incongruent,1163,1,BLUE,RED,blue,03-25-2015,15:01:48
12013,real,127,congruent,838,1,RED,RED,red,03-25-2015,15:01:48
12013,real,128,congruent,708,1,RED,RED,red,03-25-2015,15:01:48
12013,real,129,congruent,919,1,GREEN,GREEN,green,03-25-2015,15:01:48
12013,real,130,congruent,586,1,RED,RED,red,03-25-2015,15:01:48
12013,real,131,congruent,987,1,BLUE,BLUE,blue,03-25-2015,15:01:48
12013,real,132,incongruent,1019,1,BLUE,RED,blue,03-25-2015,15:01:48
12013,real,133,congruent,938,1,GREEN,GREEN,green,03-25-2015,15:01:48
12013,real,134,incongruent,822,1,GREEN,RED,green,03-25-2015,15:01:48
12013,real,135,congruent,1037,1,BLUE,BLUE,blue,03-25-2015,15:01:48
12013,real,136,congruent,851,1,GREEN,GREEN,green,03-25-2015,15:01:48
12013,real,137,congruent,946,1,RED,RED,red,03-25-2015,15:01:48
12013,real,138,incongruent,652,1,RED,GREEN,red,03-25-2015,15:01:48
12013,real,139,congruent,1055,1,BLUE,BLUE,blue,03-25-2015,15:01:48
12013,real,140,congruent,989,1,RED,RED,red,03-25-2015,15:01:48
12013,real,141,congruent,678,1,RED,RED,red,03-25-2015,15:01:48
12013,real,142,incongruent,1091,1,BLUE,GREEN,blue,03-25-2015,15:01:48
12013,real,143,congruent,896,1,RED,RED,red,03-25-2015,15:01:48
12013,real,144,congruent,2469,1,GREEN,GREEN,green,03-25-2015,15:01:48
12013,real,145,congruent,1362,1,RED,RED,red,03-25-2015,15:01:48
12013,real,146,congruent,1027,1,BLUE,BLUE,blue,03-25-2015,15:01:48
12013,real,147,incongruent,779,1,RED,BLUE,red,03-25-2015,15:01:48
12013,real,148,incongruent,989,1,RED,GREEN,red,03-25-2015,15:01:48
12013,real,149,congruent,926,1,BLUE,BLUE,blue,03-25-2015,15:01:48
12013,real,150,congruent,849,1,GREEN,GREEN,green,03-25-2015,15:01:48
12013,real,151,congruent,928,1,BLUE,BLUE,blue,03-25-2015,15:01:48
12013,real,152,congruent,947,1,RED,RED,red,03-25-2015,15:01:48
12013,real,153,incongruent,877,1,RED,GREEN,red,03-25-2015,15:01:48
12013,real,154,congruent,570,1,RED,RED,red,03-25-2015,15:01:48
12013,real,155,incongruent,1431,1,GREEN,BLUE,green,03-25-2015,15:01:48
12013,real,156,congruent,862,1,RED,RED,red,03-25-2015,15:01:48
12013,real,157,congruent,701,0,RED,GREEN,green,03-25-2015,15:01:48
12013,real,158,congruent,808,1,GREEN,GREEN,green,03-25-2015,15:01:48
12013,real,159,congruent,1279,1,RED,RED,red,03-25-2015,15:01:48
12013,real,160,congruent,749,1,GREEN,GREEN,green,03-25-2015,15:01:48
12013,real,161,congruent,688,1,BLUE,BLUE,blue,03-25-2015,15:01:48
12013,real,162,congruent,860,1,GREEN,GREEN,green,03-25-2015,15:01:48
12014,practice,1,congruent,790,1,RED,RED,red,03-02-2015,09:27:13
12014,practice,2,incongruent,808,1,GREEN,BLUE,green,03-02-2015,09:27:13
12014,practice,3,congruent,935,1,RED,RED,red,03-02-2015,09:27:13
12014,practice,4,congruent,954,1,BLUE,BLUE,blue,03-02-2015,09:27:13
12014,practice,5,congruent,597,1,BLUE,BLUE,blue,03-02-2015,09:27:13
12014,practice,6,incongruent,1021,1,RED,GREEN,red,03-02-2015,09:27:13
12014,practice,7,incongruent,852,1,GREEN,RED,green,03-02-2015,09:27:13
12014,practice,8,congruent,915,1,BLUE,BLUE,blue,03-02-2015,09:27:13
12014,practice,9,congruent,910,1,BLUE,BLUE,blue,03-02-2015,09:27:13
12014,practice,10,congruent,939,1,GREEN,GREEN,green,03-02-2015,09:27:13
12014,practice,11,congruent,903,1,GREEN,GREEN,green,03-02-2015,09:27:13
12014,practice,12,incongruent,962,1,BLUE,RED,blue,03-02-2015,09:27:13
12014,practice,13,incongruent,1092,1,BLUE,GREEN,blue,03-02-2015,09:27:13
12014,practice,14,congruent,1232,1,GREEN,GREEN,green,03-02-2015,09:27:13
12014,practice,15,congruent,1095,1,RED,RED,red,03-02-2015,09:27:13
12014,practice,16,congruent,645,1,RED,RED,red,03-02-2015,09:27:13
12014,practice,17,congruent,972,1,GREEN,GREEN,green,03-02-2015,09:27:13
12014,practice,18,incongruent,877,1,RED,BLUE,red,03-02-2015,09:27:13
12014,real,1,congruent,967,1,BLUE,BLUE,blue,03-02-2015,09:27:13
12014,real,2,congruent,928,1,GREEN,GREEN,green,03-02-2015,09:27:13
12014,real,3,congruent,868,1,GREEN,GREEN,green,03-02-2015,09:27:13
12014,real,4,congruent,921,1,RED,RED,red,03-02-2015,09:27:13
12014,real,5,congruent,828,1,RED,RED,red,03-02-2015,09:27:13
12014,real,6,congruent,850,1,RED,RED,red,03-02-2015,09:27:13
12014,real,7,incongruent,1241,1,GREEN,BLUE,green,03-02-2015,09:27:13
12014,real,8,congruent,864,1,RED,RED,red,03-02-2015,09:27:13
12014,real,9,incongruent,1022,1,RED,BLUE,red,03-02-2015,09:27:13
12014,real,10,incongruent,1020,1,RED,BLUE,red,03-02-2015,09:27:13
12014,real,11,incongruent,939,1,GREEN,RED,green,03-02-2015,09:27:13
12014,real,12,incongruent,982,1,GREEN,RED,green,03-02-2015,09:27:13
12014,real,13,incongruent,1015,1,BLUE,GREEN,blue,03-02-2015,09:27:13
12014,real,14,congruent,992,1,BLUE,BLUE,blue,03-02-2015,09:27:13
12014,real,15,congruent,928,1,BLUE,BLUE,blue,03-02-2015,09:27:13
12014,real,16,congruent,772,1,BLUE,BLUE,blue,03-02-2015,09:27:13
12014,real,17,incongruent,1005,1,GREEN,BLUE,green,03-02-2015,09:27:13
12014,real,18,congruent,853,1,RED,RED,red,03-02-2015,09:27:13
12014,real,19,congruent,932,1,GREEN,GREEN,green,03-02-2015,09:27:13
12014,real,20,incongruent,1135,1,BLUE,RED,blue,03-02-2015,09:27:13
12014,real,21,congruent,953,1,RED,RED,red,03-02-2015,09:27:13
12014,real,22,congruent,994,1,GREEN,GREEN,green,03-02-2015,09:27:13
12014,real,23,congruent,971,1,BLUE,BLUE,blue,03-02-2015,09:27:13
12014,real,24,incongruent,1372,0,GREEN,GREEN,blue,03-02-2015,09:27:13
12014,real,25,incongruent,1142,1,BLUE,RED,blue,03-02-2015,09:27:13
12014,real,26,incongruent,1151,1,GREEN,BLUE,green,03-02-2015,09:27:13
12014,real,27,congruent,953,1,BLUE,BLUE,blue,03-02-2015,09:27:13
12014,real,28,congruent,916,1,GREEN,GREEN,green,03-02-2015,09:27:13
12014,real,29,congruent,975,1,GREEN,GREEN,green,03-02-2015,09:27:13
12014,real,30,congruent,1105,1,RED,RED,red,03-02-2015,09:27:13
12014,real,31,congruent,837,1,GREEN,GREEN,green,03-02-2015,09:27:13
12014,real,32,incongruent,1260,1,RED,GREEN,red,03-02-2015,09:27:13
12014,real,33,incongruent,993,1,RED,GREEN,red,03-02-2015,09:27:13
12014,real,34,congruent,1178,1,GREEN,GREEN,green,03-02-2015,09:27:13
12014,real,35,congruent,858,1,GREEN,GREEN,green,03-02-2015,09:27:13
12014,real,36,incongruent,1249,0,BLUE,BLUE,green,03-02-2015,09:27:13
12014,real,37,congruent,751,1,BLUE,BLUE,blue,03-02-2015,09:27:13
12014,real,38,congruent,857,1,BLUE,BLUE,blue,03-02-2015,09:27:13
12014,real,39,congruent,935,1,GREEN,GREEN,green,03-02-2015,09:27:13
12014,real,40,incongruent,1153,1,BLUE,GREEN,blue,03-02-2015,09:27:13
12014,real,41,congruent,979,1,GREEN,GREEN,green,03-02-2015,09:27:13
12014,real,42,incongruent,1102,1,GREEN,BLUE,green,03-02-2015,09:27:13
12014,real,43,congruent,962,1,BLUE,BLUE,blue,03-02-2015,09:27:13
12014,real,44,incongruent,803,1,RED,BLUE,red,03-02-2015,09:27:13
12014,real,45,congruent,1035,1,BLUE,BLUE,blue,03-02-2015,09:27:13
12014,real,46,incongruent,1306,1,RED,BLUE,red,03-02-2015,09:27:13
12014,real,47,congruent,838,1,BLUE,BLUE,blue,03-02-2015,09:27:13
12014,real,48,congruent,749,1,GREEN,GREEN,green,03-02-2015,09:27:13
12014,real,49,incongruent,1272,0,RED,RED,green,03-02-2015,09:27:13
12014,real,50,congruent,837,1,RED,RED,red,03-02-2015,09:27:13
12014,real,51,congruent,1068,1,GREEN,GREEN,green,03-02-2015,09:27:13
12014,real,52,congruent,1097,1,RED,RED,red,03-02-2015,09:27:13
12014,real,53,congruent,982,1,BLUE,BLUE,blue,03-02-2015,09:27:13
12014,real,54,incongruent,1143,1,GREEN,RED,green,03-02-2015,09:27:13
12014,real,55,congruent,730,1,BLUE,BLUE,blue,03-02-2015,09:27:13
12014,real,56,congruent,941,1,RED,RED,red,03-02-2015,09:27:13
12014,real,57,incongruent,945,1,BLUE,RED,blue,03-02-2015,09:27:13
12014,real,58,congruent,908,1,RED,RED,red,03-02-2015,09:27:13
12014,real,59,incongruent,966,1,RED,BLUE,red,03-02-2015,09:27:13
12014,real,60,incongruent,1472,1,RED,GREEN,red,03-02-2015,09:27:13
12014,real,61,congruent,1054,1,BLUE,BLUE,blue,03-02-2015,09:27:13
12014,real,62,congruent,948,1,RED,RED,red,03-02-2015,09:27:13
12014,real,63,incongruent,1422,1,BLUE,GREEN,blue,03-02-2015,09:27:13
12014,real,64,incongruent,1594,1,BLUE,GREEN,blue,03-02-2015,09:27:13
12014,real,65,congruent,811,1,RED,RED,red,03-02-2015,09:27:13
12014,real,66,congruent,803,1,RED,RED,red,03-02-2015,09:27:13
12014,real,67,congruent,882,1,BLUE,BLUE,blue,03-02-2015,09:27:13
12014,real,68,incongruent,1159,1,BLUE,RED,blue,03-02-2015,09:27:13
12014,real,69,incongruent,1225,1,RED,GREEN,red,03-02-2015,09:27:13
12014,real,70,incongruent,1017,1,BLUE,GREEN,blue,03-02-2015,09:27:13
12014,real,71,congruent,1320,1,GREEN,GREEN,green,03-02-2015,09:27:13
12014,real,72,incongruent,1003,1,RED,GREEN,red,03-02-2015,09:27:13
12014,real,73,congruent,1812,1,GREEN,GREEN,green,03-02-2015,09:27:13
12014,real,74,incongruent,1115,1,BLUE,GREEN,blue,03-02-2015,09:27:13
12014,real,75,incongruent,1384,1,GREEN,BLUE,green,03-02-2015,09:27:13
12014,real,76,incongruent,1544,1,RED,BLUE,red,03-02-2015,09:27:13
12014,real,77,congruent,2747,1,GREEN,GREEN,green,03-02-2015,09:27:13
12014,real,78,incongruent,1798,1,GREEN,RED,green,03-02-2015,09:27:13
12014,real,79,congruent,1095,1,RED,RED,red,03-02-2015,09:27:13
12014,real,80,incongruent,1179,1,BLUE,GREEN,blue,03-02-2015,09:27:13
12014,real,81,incongruent,1191,1,GREEN,RED,green,03-02-2015,09:27:13
12014,real,82,congruent,984,1,BLUE,BLUE,blue,03-02-2015,09:27:13
12014,real,83,congruent,2072,1,GREEN,GREEN,green,03-02-2015,09:27:13
12014,real,84,incongruent,821,1,BLUE,RED,blue,03-02-2015,09:27:13
12014,real,85,congruent,965,1,GREEN,GREEN,green,03-02-2015,09:27:13
12014,real,86,incongruent,880,1,GREEN,RED,green,03-02-2015,09:27:13
12014,real,87,congruent,829,1,BLUE,BLUE,blue,03-02-2015,09:27:13
12014,real,88,congruent,971,1,RED,RED,red,03-02-2015,09:27:13
12014,real,89,congruent,797,1,BLUE,BLUE,blue,03-02-2015,09:27:13
12014,real,90,congruent,1702,1,BLUE,BLUE,blue,03-02-2015,09:27:13
12014,real,91,congruent,1203,1,RED,RED,red,03-02-2015,09:27:13
12014,real,92,congruent,922,1,GREEN,GREEN,green,03-02-2015,09:27:13
12014,real,93,congruent,892,1,RED,RED,red,03-02-2015,09:27:13
12014,real,94,congruent,1009,1,RED,RED,red,03-02-2015,09:27:13
12014,real,95,congruent,913,1,RED,RED,red,03-02-2015,09:27:13
12014,real,96,congruent,1622,1,GREEN,GREEN,green,03-02-2015,09:27:13
12014,real,97,congruent,1205,1,BLUE,BLUE,blue,03-02-2015,09:27:13
12014,real,98,congruent,1029,1,BLUE,BLUE,blue,03-02-2015,09:27:13
12014,real,99,congruent,916,1,BLUE,BLUE,blue,03-02-2015,09:27:13
12014,real,100,incongruent,880,1,GREEN,BLUE,green,03-02-2015,09:27:13
12014,real,101,congruent,1109,1,GREEN,GREEN,green,03-02-2015,09:27:13
12014,real,102,congruent,1113,1,BLUE,BLUE,blue,03-02-2015,09:27:13
12014,real,103,incongruent,1166,1,BLUE,RED,blue,03-02-2015,09:27:13
12014,real,104,congruent,823,1,BLUE,BLUE,blue,03-02-2015,09:27:13
12014,real,105,incongruent,799,1,GREEN,BLUE,green,03-02-2015,09:27:13
12014,real,106,congruent,711,1,BLUE,BLUE,blue,03-02-2015,09:27:13
12014,real,107,incongruent,1020,1,GREEN,RED,green,03-02-2015,09:27:13
12014,real,108,congruent,1011,1,GREEN,GREEN,green,03-02-2015,09:27:13
12014,real,109,incongruent,931,1,RED,GREEN,red,03-02-2015,09:27:13
12014,real,110,congruent,822,1,RED,RED,red,03-02-2015,09:27:13
12014,real,111,incongruent,1333,1,RED,BLUE,red,03-02-2015,09:27:13
12014,real,112,congruent,1175,1,GREEN,GREEN,green,03-02-2015,09:27:13
12014,real,113,incongruent,1328,1,BLUE,RED,blue,03-02-2015,09:27:13
12014,real,114,congruent,852,1,RED,RED,red,03-02-2015,09:27:13
12014,real,115,congruent,915,1,GREEN,GREEN,green,03-02-2015,09:27:13
12014,real,116,congruent,1246,1,BLUE,BLUE,blue,03-02-2015,09:27:13
12014,real,117,congruent,1532,1,BLUE,BLUE,blue,03-02-2015,09:27:13
12014,real,118,congruent,1183,1,GREEN,GREEN,green,03-02-2015,09:27:13
12014,real,119,congruent,1105,1,BLUE,BLUE,blue,03-02-2015,09:27:13
12014,real,120,congruent,1108,1,BLUE,BLUE,blue,03-02-2015,09:27:13
12014,real,121,congruent,1680,1,RED,RED,red,03-02-2015,09:27:13
12014,real,122,incongruent,1693,1,RED,BLUE,red,03-02-2015,09:27:13
12014,real,123,congruent,906,1,GREEN,GREEN,green,03-02-2015,09:27:13
12014,real,124,congruent,1375,1,RED,RED,red,03-02-2015,09:27:13
12014,real,125,congruent,1223,1,GREEN,GREEN,green,03-02-2015,09:27:13
12014,real,126,incongruent,799,1,BLUE,RED,blue,03-02-2015,09:27:13
12014,real,127,congruent,1000,1,RED,RED,red,03-02-2015,09:27:13
12014,real,128,congruent,647,1,RED,RED,red,03-02-2015,09:27:13
12014,real,129,congruent,814,1,GREEN,GREEN,green,03-02-2015,09:27:13
12014,real,130,congruent,887,1,RED,RED,red,03-02-2015,09:27:13
12014,real,131,congruent,818,1,BLUE,BLUE,blue,03-02-2015,09:27:13
12014,real,132,incongruent,1506,1,BLUE,RED,blue,03-02-2015,09:27:13
12014,real,133,congruent,926,1,GREEN,GREEN,green,03-02-2015,09:27:13
12014,real,134,incongruent,2185,1,GREEN,RED,green,03-02-2015,09:27:13
12014,real,135,congruent,1067,1,BLUE,BLUE,blue,03-02-2015,09:27:13
12014,real,136,congruent,1247,1,GREEN,GREEN,green,03-02-2015,09:27:13
12014,real,137,congruent,1718,1,RED,RED,red,03-02-2015,09:27:13
12014,real,138,incongruent,1089,1,RED,GREEN,red,03-02-2015,09:27:13
12014,real,139,congruent,1037,1,BLUE,BLUE,blue,03-02-2015,09:27:13
12014,real,140,congruent,971,1,RED,RED,red,03-02-2015,09:27:13
12014,real,141,congruent,948,1,RED,RED,red,03-02-2015,09:27:13
12014,real,142,incongruent,1223,1,BLUE,GREEN,blue,03-02-2015,09:27:13
12014,real,143,congruent,823,1,RED,RED,red,03-02-2015,09:27:13
12014,real,144,congruent,998,1,GREEN,GREEN,green,03-02-2015,09:27:13
12014,real,145,congruent,1175,1,RED,RED,red,03-02-2015,09:27:13
12014,real,146,congruent,1367,1,BLUE,BLUE,blue,03-02-2015,09:27:13
12014,real,147,incongruent,937,1,RED,BLUE,red,03-02-2015,09:27:13
12014,real,148,incongruent,1380,1,RED,GREEN,red,03-02-2015,09:27:13
12014,real,149,congruent,1189,1,BLUE,BLUE,blue,03-02-2015,09:27:13
12014,real,150,congruent,1046,1,GREEN,GREEN,green,03-02-2015,09:27:13
12014,real,151,congruent,1125,1,BLUE,BLUE,blue,03-02-2015,09:27:13
12014,real,152,congruent,1000,1,RED,RED,red,03-02-2015,09:27:13
12014,real,153,incongruent,1289,1,RED,GREEN,red,03-02-2015,09:27:13
12014,real,154,congruent,846,1,RED,RED,red,03-02-2015,09:27:13
12014,real,155,incongruent,1240,1,GREEN,BLUE,green,03-02-2015,09:27:13
12014,real,156,congruent,671,1,RED,RED,red,03-02-2015,09:27:13
12014,real,157,congruent,1124,1,GREEN,GREEN,green,03-02-2015,09:27:13
12014,real,158,congruent,511,1,GREEN,GREEN,green,03-02-2015,09:27:13
12014,real,159,congruent,1068,1,RED,RED,red,03-02-2015,09:27:13
12014,real,160,congruent,938,1,GREEN,GREEN,green,03-02-2015,09:27:13
12014,real,161,congruent,885,1,BLUE,BLUE,blue,03-02-2015,09:27:13
12014,real,162,congruent,760,1,GREEN,GREEN,green,03-02-2015,09:27:13
12015,practice,1,congruent,656,1,RED,RED,red,04-13-2015,12:20:49
12015,practice,2,incongruent,1197,1,GREEN,BLUE,green,04-13-2015,12:20:49
12015,practice,3,congruent,598,1,RED,RED,red,04-13-2015,12:20:49
12015,practice,4,congruent,631,1,BLUE,BLUE,blue,04-13-2015,12:20:49
12015,practice,5,congruent,982,1,BLUE,BLUE,blue,04-13-2015,12:20:49
12015,practice,6,incongruent,935,0,GREEN,GREEN,red,04-13-2015,12:20:49
12015,practice,7,incongruent,810,1,GREEN,RED,green,04-13-2015,12:20:49
12015,practice,8,congruent,690,1,BLUE,BLUE,blue,04-13-2015,12:20:49
12015,practice,9,congruent,670,1,BLUE,BLUE,blue,04-13-2015,12:20:49
12015,practice,10,congruent,748,1,GREEN,GREEN,green,04-13-2015,12:20:49
12015,practice,11,congruent,679,1,GREEN,GREEN,green,04-13-2015,12:20:49
12015,practice,12,incongruent,1316,1,BLUE,RED,blue,04-13-2015,12:20:49
12015,practice,13,incongruent,679,1,BLUE,GREEN,blue,04-13-2015,12:20:49
12015,practice,14,congruent,677,1,GREEN,GREEN,green,04-13-2015,12:20:49
12015,practice,15,congruent,658,1,RED,RED,red,04-13-2015,12:20:49
12015,practice,16,congruent,560,1,RED,RED,red,04-13-2015,12:20:49
12015,practice,17,congruent,722,1,GREEN,GREEN,green,04-13-2015,12:20:49
12015,practice,18,incongruent,702,1,RED,BLUE,red,04-13-2015,12:20:49
12015,real,1,congruent,711,1,BLUE,BLUE,blue,04-13-2015,12:20:49
12015,real,2,congruent,547,1,GREEN,GREEN,green,04-13-2015,12:20:49
12015,real,3,congruent,550,1,GREEN,GREEN,green,04-13-2015,12:20:49
12015,real,4,congruent,576,1,RED,RED,red,04-13-2015,12:20:49
12015,real,5,congruent,505,1,RED,RED,red,04-13-2015,12:20:49
12015,real,6,congruent,502,1,RED,RED,red,04-13-2015,12:20:49
12015,real,7,incongruent,1098,1,GREEN,BLUE,green,04-13-2015,12:20:49
12015,real,8,congruent,526,1,RED,RED,red,04-13-2015,12:20:49
12015,real,9,incongruent,1033,1,RED,BLUE,red,04-13-2015,12:20:49
12015,real,10,incongruent,784,1,RED,BLUE,red,04-13-2015,12:20:49
12015,real,11,incongruent,624,1,GREEN,RED,green,04-13-2015,12:20:49
12015,real,12,incongruent,696,1,GREEN,RED,green,04-13-2015,12:20:49
12015,real,13,incongruent,421,1,BLUE,GREEN,blue,04-13-2015,12:20:49
12015,real,14,congruent,364,1,BLUE,BLUE,blue,04-13-2015,12:20:49
12015,real,15,congruent,502,1,BLUE,BLUE,blue,04-13-2015,12:20:49
12015,real,16,congruent,578,1,BLUE,BLUE,blue,04-13-2015,12:20:49
12015,real,17,incongruent,739,1,GREEN,BLUE,green,04-13-2015,12:20:49
12015,real,18,congruent,606,1,RED,RED,red,04-13-2015,12:20:49
12015,real,19,congruent,414,0,RED,GREEN,green,04-13-2015,12:20:49
12015,real,20,incongruent,710,1,BLUE,RED,blue,04-13-2015,12:20:49
12015,real,21,congruent,850,1,RED,RED,red,04-13-2015,12:20:49
12015,real,22,congruent,568,1,GREEN,GREEN,green,04-13-2015,12:20:49
12015,real,23,congruent,998,1,BLUE,BLUE,blue,04-13-2015,12:20:49
12015,real,24,incongruent,455,1,BLUE,GREEN,blue,04-13-2015,12:20:49
12015,real,25,incongruent,525,1,BLUE,RED,blue,04-13-2015,12:20:49
12015,real,26,incongruent,608,1,GREEN,BLUE,green,04-13-2015,12:20:49
12015,real,27,congruent,792,1,BLUE,BLUE,blue,04-13-2015,12:20:49
12015,real,28,congruent,1129,1,GREEN,GREEN,green,04-13-2015,12:20:49
12015,real,29,congruent,541,1,GREEN,GREEN,green,04-13-2015,12:20:49
12015,real,30,congruent,608,1,RED,RED,red,04-13-2015,12:20:49
12015,real,31,congruent,799,1,GREEN,GREEN,green,04-13-2015,12:20:49
12015,real,32,incongruent,687,1,RED,GREEN,red,04-13-2015,12:20:49
12015,real,33,incongruent,533,1,RED,GREEN,red,04-13-2015,12:20:49
12015,real,34,congruent,512,1,GREEN,GREEN,green,04-13-2015,12:20:49
12015,real,35,congruent,588,1,GREEN,GREEN,green,04-13-2015,12:20:49
12015,real,36,incongruent,684,1,GREEN,BLUE,green,04-13-2015,12:20:49
12015,real,37,congruent,376,1,BLUE,BLUE,blue,04-13-2015,12:20:49
12015,real,38,congruent,434,1,BLUE,BLUE,blue,04-13-2015,12:20:49
12015,real,39,congruent,696,1,GREEN,GREEN,green,04-13-2015,12:20:49
12015,real,40,incongruent,917,1,BLUE,GREEN,blue,04-13-2015,12:20:49
12015,real,41,congruent,704,1,GREEN,GREEN,green,04-13-2015,12:20:49
12015,real,42,incongruent,1193,1,GREEN,BLUE,green,04-13-2015,12:20:49
12015,real,43,congruent,538,1,BLUE,BLUE,blue,04-13-2015,12:20:49
12015,real,44,incongruent,564,1,RED,BLUE,red,04-13-2015,12:20:49
