Subject,Block,Trial,SetSize,SubTrial,SubTrialProc,RT,Accuracy,Response,CorrectResponse,MemoryItem,Processing.total,Recall.total,SymSpan.Absolute,SymSpan.Partial,SymSpan.Partial_Block1,SymSpan.Partial_Block2,SymSpan.SymmetryACC,SymSpan.SymmetryDuration,SessionDate,SessionTime
12000,1,1,3,1,ProcessingTask,869,1,FALSE,FALSE,12,3,1,20,34,14,20,1,,02-24-2015,11:19:03
12000,1,1,3,2,ProcessingTask,591,1,FALSE,FALSE,13,3,1,20,34,14,20,1,,02-24-2015,11:19:03
12000,1,1,3,3,ProcessingTask,676,1,TRUE,TRUE,1,3,1,20,34,14,20,1,,02-24-2015,11:19:03
12000,1,1,3,4,Recall,1200,0,15,12,,3,1,20,34,14,20,1,,02-24-2015,11:19:03
12000,1,1,3,5,Recall,303,0,12,13,,3,1,20,34,14,20,1,,02-24-2015,11:19:03
12000,1,1,3,6,Recall,707,1,1,1,,3,1,20,34,14,20,1,,02-24-2015,11:19:03
12000,1,2,6,1,ProcessingTask,613,1,FALSE,FALSE,4,6,6,20,34,14,20,1,,02-24-2015,11:19:03
12000,1,2,6,2,ProcessingTask,644,1,FALSE,FALSE,6,6,6,20,34,14,20,1,,02-24-2015,11:19:03
12000,1,2,6,3,ProcessingTask,507,1,FALSE,FALSE,10,6,6,20,34,14,20,1,,02-24-2015,11:19:03
12000,1,2,6,4,ProcessingTask,672,1,TRUE,TRUE,8,6,6,20,34,14,20,1,,02-24-2015,11:19:03
12000,1,2,6,5,ProcessingTask,595,1,TRUE,TRUE,2,6,6,20,34,14,20,1,,02-24-2015,11:19:03
12000,1,2,6,6,ProcessingTask,476,1,FALSE,FALSE,13,6,6,20,34,14,20,1,,02-24-2015,11:19:03
12000,1,2,6,7,Recall,1032,1,4,4,,6,6,20,34,14,20,1,,02-24-2015,11:19:03
12000,1,2,6,8,Recall,1174,1,6,6,,6,6,20,34,14,20,1,,02-24-2015,11:19:03
12000,1,2,6,9,Recall,432,1,10,10,,6,6,20,34,14,20,1,,02-24-2015,11:19:03
12000,1,2,6,10,Recall,518,1,8,8,,6,6,20,34,14,20,1,,02-24-2015,11:19:03
12000,1,2,6,11,Recall,464,1,2,2,,6,6,20,34,14,20,1,,02-24-2015,11:19:03
12000,1,2,6,12,Recall,533,1,13,13,,6,6,20,34,14,20,1,,02-24-2015,11:19:03
12000,1,3,5,1,ProcessingTask,476,1,TRUE,TRUE,2,5,1,20,34,14,20,1,,02-24-2015,11:19:03
12000,1,3,5,2,ProcessingTask,1106,1,TRUE,TRUE,12,5,1,20,34,14,20,1,,02-24-2015,11:19:03
12000,1,3,5,3,ProcessingTask,905,1,TRUE,TRUE,10,5,1,20,34,14,20,1,,02-24-2015,11:19:03
12000,1,3,5,4,ProcessingTask,605,1,FALSE,FALSE,9,5,1,20,34,14,20,1,,02-24-2015,11:19:03
12000,1,3,5,5,ProcessingTask,544,1,FALSE,FALSE,4,5,1,20,34,14,20,1,,02-24-2015,11:19:03
12000,1,3,5,6,Recall,1673,0,10,2,,5,1,20,34,14,20,1,,02-24-2015,11:19:03
12000,1,3,5,7,Recall,478,1,12,12,,5,1,20,34,14,20,1,,02-24-2015,11:19:03
12000,1,3,5,8,Recall,483,0,4,10,,5,1,20,34,14,20,1,,02-24-2015,11:19:03
12000,1,4,4,1,ProcessingTask,848,1,TRUE,TRUE,9,4,3,20,34,14,20,1,,02-24-2015,11:19:03
12000,1,4,4,2,ProcessingTask,599,1,FALSE,FALSE,8,4,3,20,34,14,20,1,,02-24-2015,11:19:03
12000,1,4,4,3,ProcessingTask,914,1,TRUE,TRUE,13,4,3,20,34,14,20,1,,02-24-2015,11:19:03
12000,1,4,4,4,ProcessingTask,462,1,TRUE,TRUE,6,4,3,20,34,14,20,1,,02-24-2015,11:19:03
12000,1,4,4,5,Recall,818,1,9,9,,4,3,20,34,14,20,1,,02-24-2015,11:19:03
12000,1,4,4,6,Recall,705,0,12,8,,4,3,20,34,14,20,1,,02-24-2015,11:19:03
12000,1,4,4,7,Recall,541,1,13,13,,4,3,20,34,14,20,1,,02-24-2015,11:19:03
12000,1,4,4,8,Recall,335,1,6,6,,4,3,20,34,14,20,1,,02-24-2015,11:19:03
12000,1,5,7,1,ProcessingTask,779,1,TRUE,TRUE,10,7,1,20,34,14,20,1,,02-24-2015,11:19:03
12000,1,5,7,2,ProcessingTask,558,1,FALSE,FALSE,4,7,1,20,34,14,20,1,,02-24-2015,11:19:03
12000,1,5,7,3,ProcessingTask,717,1,TRUE,TRUE,5,7,1,20,34,14,20,1,,02-24-2015,11:19:03
12000,1,5,7,4,ProcessingTask,436,1,FALSE,FALSE,12,7,1,20,34,14,20,1,,02-24-2015,11:19:03
12000,1,5,7,5,ProcessingTask,581,1,FALSE,FALSE,6,7,1,20,34,14,20,1,,02-24-2015,11:19:03
12000,1,5,7,6,ProcessingTask,523,1,FALSE,FALSE,13,7,1,20,34,14,20,1,,02-24-2015,11:19:03
12000,1,5,7,7,ProcessingTask,719,1,FALSE,FALSE,14,7,1,20,34,14,20,1,,02-24-2015,11:19:03
12000,1,5,7,8,Recall,4360,1,10,10,,7,1,20,34,14,20,1,,02-24-2015,11:19:03
12000,1,5,7,9,Recall,331,0,5,4,,7,1,20,34,14,20,1,,02-24-2015,11:19:03
12000,1,5,7,10,Recall,485,0,12,5,,7,1,20,34,14,20,1,,02-24-2015,11:19:03
12000,1,5,7,11,Recall,625,0,2,12,,7,1,20,34,14,20,1,,02-24-2015,11:19:03
12000,1,5,7,12,Recall,1679,0,13,6,,7,1,20,34,14,20,1,,02-24-2015,11:19:03
12000,1,5,7,13,Recall,227,0,14,13,,7,1,20,34,14,20,1,,02-24-2015,11:19:03
12000,1,6,2,1,ProcessingTask,793,1,TRUE,TRUE,9,2,2,20,34,14,20,1,,02-24-2015,11:19:03
12000,1,6,2,2,ProcessingTask,815,1,TRUE,TRUE,7,2,2,20,34,14,20,1,,02-24-2015,11:19:03
12000,1,6,2,3,Recall,2731,1,9,9,,2,2,20,34,14,20,1,,02-24-2015,11:19:03
12000,1,6,2,4,Recall,398,1,7,7,,2,2,20,34,14,20,1,,02-24-2015,11:19:03
12000,2,1,3,1,ProcessingTask,1207,1,FALSE,FALSE,16,3,2,20,34,14,20,1,,02-24-2015,11:19:03
12000,2,1,3,2,ProcessingTask,586,1,TRUE,TRUE,5,3,2,20,34,14,20,1,,02-24-2015,11:19:03
12000,2,1,3,3,ProcessingTask,462,1,TRUE,TRUE,14,3,2,20,34,14,20,1,,02-24-2015,11:19:03
12000,2,1,3,4,Recall,1258,0,12,16,,3,2,20,34,14,20,1,,02-24-2015,11:19:03
12000,2,1,3,5,Recall,1168,1,5,5,,3,2,20,34,14,20,1,,02-24-2015,11:19:03
12000,2,1,3,6,Recall,393,1,14,14,,3,2,20,34,14,20,1,,02-24-2015,11:19:03
12000,2,2,6,1,ProcessingTask,617,1,FALSE,FALSE,9,6,6,20,34,14,20,1,,02-24-2015,11:19:03
12000,2,2,6,2,ProcessingTask,583,1,FALSE,FALSE,12,6,6,20,34,14,20,1,,02-24-2015,11:19:03
12000,2,2,6,3,ProcessingTask,493,1,FALSE,FALSE,11,6,6,20,34,14,20,1,,02-24-2015,11:19:03
12000,2,2,6,4,ProcessingTask,546,1,FALSE,FALSE,6,6,6,20,34,14,20,1,,02-24-2015,11:19:03
12000,2,2,6,5,ProcessingTask,658,1,TRUE,TRUE,15,6,6,20,34,14,20,1,,02-24-2015,11:19:03
12000,2,2,6,6,ProcessingTask,491,1,TRUE,TRUE,7,6,6,20,34,14,20,1,,02-24-2015,11:19:03
12000,2,2,6,7,Recall,725,1,9,9,,6,6,20,34,14,20,1,,02-24-2015,11:19:03
12000,2,2,6,8,Recall,512,1,12,12,,6,6,20,34,14,20,1,,02-24-2015,11:19:03
12000,2,2,6,9,Recall,492,1,11,11,,6,6,20,34,14,20,1,,02-24-2015,11:19:03
12000,2,2,6,10,Recall,424,1,6,6,,6,6,20,34,14,20,1,,02-24-2015,11:19:03
12000,2,2,6,11,Recall,1103,1,15,15,,6,6,20,34,14,20,1,,02-24-2015,11:19:03
12000,2,2,6,12,Recall,290,1,7,7,,6,6,20,34,14,20,1,,02-24-2015,11:19:03
12000,2,3,7,1,ProcessingTask,930,1,FALSE,FALSE,1,7,4,20,34,14,20,1,,02-24-2015,11:19:03
12000,2,3,7,2,ProcessingTask,685,1,FALSE,FALSE,10,7,4,20,34,14,20,1,,02-24-2015,11:19:03
12000,2,3,7,3,ProcessingTask,506,1,TRUE,TRUE,2,7,4,20,34,14,20,1,,02-24-2015,11:19:03
12000,2,3,7,4,ProcessingTask,707,1,FALSE,FALSE,8,7,4,20,34,14,20,1,,02-24-2015,11:19:03
12000,2,3,7,5,ProcessingTask,1014,1,FALSE,FALSE,4,7,4,20,34,14,20,1,,02-24-2015,11:19:03
12000,2,3,7,6,ProcessingTask,876,1,TRUE,TRUE,3,7,4,20,34,14,20,1,,02-24-2015,11:19:03
12000,2,3,7,7,ProcessingTask,513,1,FALSE,FALSE,13,7,4,20,34,14,20,1,,02-24-2015,11:19:03
12000,2,3,7,8,Recall,1954,1,1,1,,7,4,20,34,14,20,1,,02-24-2015,11:19:03
12000,2,3,7,9,Recall,524,1,10,10,,7,4,20,34,14,20,1,,02-24-2015,11:19:03
12000,2,3,7,10,Recall,3982,1,2,2,,7,4,20,34,14,20,1,,02-24-2015,11:19:03
12000,2,3,7,11,Recall,415,1,8,8,,7,4,20,34,14,20,1,,02-24-2015,11:19:03
12000,2,3,7,12,Recall,782,0,13,4,,7,4,20,34,14,20,1,,02-24-2015,11:19:03
12000,2,4,4,1,ProcessingTask,701,1,TRUE,TRUE,2,4,4,20,34,14,20,1,,02-24-2015,11:19:03
12000,2,4,4,2,ProcessingTask,439,1,FALSE,FALSE,15,4,4,20,34,14,20,1,,02-24-2015,11:19:03
12000,2,4,4,3,ProcessingTask,718,1,FALSE,FALSE,14,4,4,20,34,14,20,1,,02-24-2015,11:19:03
12000,2,4,4,4,ProcessingTask,572,1,FALSE,FALSE,13,4,4,20,34,14,20,1,,02-24-2015,11:19:03
12000,2,4,4,5,Recall,691,1,2,2,,4,4,20,34,14,20,1,,02-24-2015,11:19:03
12000,2,4,4,6,Recall,1223,1,15,15,,4,4,20,34,14,20,1,,02-24-2015,11:19:03
12000,2,4,4,7,Recall,1422,1,14,14,,4,4,20,34,14,20,1,,02-24-2015,11:19:03
12000,2,4,4,8,Recall,557,1,13,13,,4,4,20,34,14,20,1,,02-24-2015,11:19:03
12000,2,5,5,1,ProcessingTask,746,1,TRUE,TRUE,3,5,2,20,34,14,20,1,,02-24-2015,11:19:03
12000,2,5,5,2,ProcessingTask,578,1,TRUE,TRUE,4,5,2,20,34,14,20,1,,02-24-2015,11:19:03
12000,2,5,5,3,ProcessingTask,505,1,FALSE,FALSE,12,5,2,20,34,14,20,1,,02-24-2015,11:19:03
12000,2,5,5,4,ProcessingTask,671,1,TRUE,TRUE,5,5,2,20,34,14,20,1,,02-24-2015,11:19:03
12000,2,5,5,5,ProcessingTask,458,1,FALSE,FALSE,7,5,2,20,34,14,20,1,,02-24-2015,11:19:03
12000,2,5,5,6,Recall,1190,1,3,3,,5,2,20,34,14,20,1,,02-24-2015,11:19:03
12000,2,5,5,7,Recall,1119,0,11,4,,5,2,20,34,14,20,1,,02-24-2015,11:19:03
12000,2,5,5,8,Recall,642,0,4,12,,5,2,20,34,14,20,1,,02-24-2015,11:19:03
12000,2,5,5,9,Recall,624,0,9,5,,5,2,20,34,14,20,1,,02-24-2015,11:19:03
12000,2,5,5,10,Recall,319,1,7,7,,5,2,20,34,14,20,1,,02-24-2015,11:19:03
12000,2,6,2,1,ProcessingTask,440,1,FALSE,FALSE,11,2,2,20,34,14,20,1,,02-24-2015,11:19:03
12000,2,6,2,2,ProcessingTask,570,1,FALSE,FALSE,16,2,2,20,34,14,20,1,,02-24-2015,11:19:03
12000,2,6,2,3,Recall,680,1,11,11,,2,2,20,34,14,20,1,,02-24-2015,11:19:03
12000,2,6,2,4,Recall,325,1,16,16,,2,2,20,34,14,20,1,,02-24-2015,11:19:03
12002,1,1,5,1,ProcessingTask,568,1,TRUE,TRUE,2,5,4,18,33,13,20,0.988527724665392,,02-23-2015,14:45:18
12002,1,1,5,2,ProcessingTask,530,1,TRUE,TRUE,12,5,4,18,33,13,20,0.988527724665392,,02-23-2015,14:45:18
12002,1,1,5,3,ProcessingTask,592,1,TRUE,TRUE,1,5,4,18,33,13,20,0.988527724665392,,02-23-2015,14:45:18
12002,1,1,5,4,ProcessingTask,492,1,FALSE,FALSE,3,5,4,18,33,13,20,0.988527724665392,,02-23-2015,14:45:18
12002,1,1,5,5,ProcessingTask,538,1,FALSE,FALSE,8,5,4,18,33,13,20,0.988527724665392,,02-23-2015,14:45:18
12002,1,1,5,6,Recall,866,1,2,2,,5,4,18,33,13,20,0.988527724665392,,02-23-2015,14:45:18
12002,1,1,5,7,Recall,623,1,12,12,,5,4,18,33,13,20,0.988527724665392,,02-23-2015,14:45:18
12002,1,1,5,8,Recall,590,1,1,1,,5,4,18,33,13,20,0.988527724665392,,02-23-2015,14:45:18
12002,1,1,5,9,Recall,573,0,6,3,,5,4,18,33,13,20,0.988527724665392,,02-23-2015,14:45:18
12002,1,1,5,10,Recall,550,1,8,8,,5,4,18,33,13,20,0.988527724665392,,02-23-2015,14:45:18
12002,1,2,3,1,ProcessingTask,845,0,TRUE,FALSE,12,2,3,18,33,13,20,0.988527724665392,,02-23-2015,14:45:18
12002,1,2,3,2,ProcessingTask,630,1,TRUE,TRUE,4,2,3,18,33,13,20,0.988527724665392,,02-23-2015,14:45:18
12002,1,2,3,3,ProcessingTask,658,1,FALSE,FALSE,9,2,3,18,33,13,20,0.988527724665392,,02-23-2015,14:45:18
12002,1,2,3,4,Recall,1494,1,12,12,,2,3,18,33,13,20,0.988527724665392,,02-23-2015,14:45:18
12002,1,2,3,5,Recall,1763,1,4,4,,2,3,18,33,13,20,0.988527724665392,,02-23-2015,14:45:18
12002,1,2,3,6,Recall,548,1,9,9,,2,3,18,33,13,20,0.988527724665392,,02-23-2015,14:45:18
12002,1,3,2,1,ProcessingTask,710,1,FALSE,FALSE,9,2,2,18,33,13,20,0.988527724665392,,02-23-2015,14:45:18
12002,1,3,2,2,ProcessingTask,670,1,FALSE,FALSE,16,2,2,18,33,13,20,0.988527724665392,,02-23-2015,14:45:18
12002,1,3,2,3,Recall,553,1,9,9,,2,2,18,33,13,20,0.988527724665392,,02-23-2015,14:45:18
12002,1,3,2,4,Recall,571,1,16,16,,2,2,18,33,13,20,0.988527724665392,,02-23-2015,14:45:18
12002,1,4,6,1,ProcessingTask,826,1,FALSE,FALSE,7,6,0,18,33,13,20,0.988527724665392,,02-23-2015,14:45:18
12002,1,4,6,2,ProcessingTask,807,1,TRUE,TRUE,14,6,0,18,33,13,20,0.988527724665392,,02-23-2015,14:45:18
12002,1,4,6,3,ProcessingTask,640,1,TRUE,TRUE,8,6,0,18,33,13,20,0.988527724665392,,02-23-2015,14:45:18
12002,1,4,6,4,ProcessingTask,503,1,FALSE,FALSE,16,6,0,18,33,13,20,0.988527724665392,,02-23-2015,14:45:18
12002,1,4,6,5,ProcessingTask,525,1,FALSE,FALSE,4,6,0,18,33,13,20,0.988527724665392,,02-23-2015,14:45:18
12002,1,4,6,6,ProcessingTask,564,1,FALSE,FALSE,10,6,0,18,33,13,20,0.988527724665392,,02-23-2015,14:45:18
12002,1,4,6,7,Recall,1540,0,blank,7,,6,0,18,33,13,20,0.988527724665392,,02-23-2015,14:45:18
12002,1,4,6,8,Recall,1254,0,blank,14,,6,0,18,33,13,20,0.988527724665392,,02-23-2015,14:45:18
12002,1,4,6,9,Recall,668,0,blank,8,,6,0,18,33,13,20,0.988527724665392,,02-23-2015,14:45:18
12002,1,4,6,10,Recall,849,0,4,16,,6,0,18,33,13,20,0.988527724665392,,02-23-2015,14:45:18
12002,1,4,6,11,Recall,1710,0,10,4,,6,0,18,33,13,20,0.988527724665392,,02-23-2015,14:45:18
12002,1,5,4,1,ProcessingTask,663,1,FALSE,FALSE,2,4,4,18,33,13,20,0.988527724665392,,02-23-2015,14:45:18
12002,1,5,4,2,ProcessingTask,597,1,TRUE,TRUE,3,4,4,18,33,13,20,0.988527724665392,,02-23-2015,14:45:18
12002,1,5,4,3,ProcessingTask,583,1,TRUE,TRUE,15,4,4,18,33,13,20,0.988527724665392,,02-23-2015,14:45:18
12002,1,5,4,4,ProcessingTask,571,1,FALSE,FALSE,5,4,4,18,33,13,20,0.988527724665392,,02-23-2015,14:45:18
12002,1,5,4,5,Recall,538,1,2,2,,4,4,18,33,13,20,0.988527724665392,,02-23-2015,14:45:18
12002,1,5,4,6,Recall,405,1,3,3,,4,4,18,33,13,20,0.988527724665392,,02-23-2015,14:45:18
12002,1,5,4,7,Recall,572,1,15,15,,4,4,18,33,13,20,0.988527724665392,,02-23-2015,14:45:18
12002,1,5,4,8,Recall,541,1,5,5,,4,4,18,33,13,20,0.988527724665392,,02-23-2015,14:45:18
12002,1,6,7,1,ProcessingTask,616,1,FALSE,FALSE,8,7,0,18,33,13,20,0.988527724665392,,02-23-2015,14:45:18
12002,1,6,7,2,ProcessingTask,459,1,FALSE,FALSE,14,7,0,18,33,13,20,0.988527724665392,,02-23-2015,14:45:18
12002,1,6,7,3,ProcessingTask,731,1,FALSE,FALSE,15,7,0,18,33,13,20,0.988527724665392,,02-23-2015,14:45:18
12002,1,6,7,4,ProcessingTask,619,1,TRUE,TRUE,10,7,0,18,33,13,20,0.988527724665392,,02-23-2015,14:45:18
12002,1,6,7,5,ProcessingTask,625,1,TRUE,TRUE,7,7,0,18,33,13,20,0.988527724665392,,02-23-2015,14:45:18
12002,1,6,7,6,ProcessingTask,457,1,FALSE,FALSE,13,7,0,18,33,13,20,0.988527724665392,,02-23-2015,14:45:18
12002,1,6,7,7,ProcessingTask,486,1,TRUE,TRUE,9,7,0,18,33,13,20,0.988527724665392,,02-23-2015,14:45:18
12002,1,6,7,8,Recall,1288,0,blank,8,,7,0,18,33,13,20,0.988527724665392,,02-23-2015,14:45:18
12002,1,6,7,9,Recall,269,0,blank,14,,7,0,18,33,13,20,0.988527724665392,,02-23-2015,14:45:18
12002,1,6,7,10,Recall,306,0,blank,15,,7,0,18,33,13,20,0.988527724665392,,02-23-2015,14:45:18
12002,1,6,7,11,Recall,453,0,13,10,,7,0,18,33,13,20,0.988527724665392,,02-23-2015,14:45:18
12002,1,6,7,12,Recall,378,0,9,7,,7,0,18,33,13,20,0.988527724665392,,02-23-2015,14:45:18
12002,2,1,7,1,ProcessingTask,507,1,FALSE,FALSE,13,7,4,18,33,13,20,0.988527724665392,,02-23-2015,14:45:18
12002,2,1,7,2,ProcessingTask,642,1,TRUE,TRUE,9,7,4,18,33,13,20,0.988527724665392,,02-23-2015,14:45:18
12002,2,1,7,3,ProcessingTask,656,1,TRUE,TRUE,6,7,4,18,33,13,20,0.988527724665392,,02-23-2015,14:45:18
12002,2,1,7,4,ProcessingTask,648,1,TRUE,TRUE,5,7,4,18,33,13,20,0.988527724665392,,02-23-2015,14:45:18
12002,2,1,7,5,ProcessingTask,617,1,TRUE,TRUE,11,7,4,18,33,13,20,0.988527724665392,,02-23-2015,14:45:18
12002,2,1,7,6,ProcessingTask,595,1,TRUE,TRUE,12,7,4,18,33,13,20,0.988527724665392,,02-23-2015,14:45:18
12002,2,1,7,7,ProcessingTask,681,1,TRUE,TRUE,16,7,4,18,33,13,20,0.988527724665392,,02-23-2015,14:45:18
12002,2,1,7,8,Recall,643,1,13,13,,7,4,18,33,13,20,0.988527724665392,,02-23-2015,14:45:18
12002,2,1,7,9,Recall,449,1,9,9,,7,4,18,33,13,20,0.988527724665392,,02-23-2015,14:45:18
12002,2,1,7,10,Recall,535,1,6,6,,7,4,18,33,13,20,0.988527724665392,,02-23-2015,14:45:18
12002,2,1,7,11,Recall,601,1,5,5,,7,4,18,33,13,20,0.988527724665392,,02-23-2015,14:45:18
12002,2,1,7,12,Recall,993,0,12,11,,7,4,18,33,13,20,0.988527724665392,,02-23-2015,14:45:18
12002,2,1,7,13,Recall,553,0,16,12,,7,4,18,33,13,20,0.988527724665392,,02-23-2015,14:45:18
12002,2,2,4,1,ProcessingTask,522,1,FALSE,FALSE,4,4,4,18,33,13,20,0.988527724665392,,02-23-2015,14:45:18
12002,2,2,4,2,ProcessingTask,465,1,FALSE,FALSE,8,4,4,18,33,13,20,0.988527724665392,,02-23-2015,14:45:18
12002,2,2,4,3,ProcessingTask,590,1,TRUE,TRUE,15,4,4,18,33,13,20,0.988527724665392,,02-23-2015,14:45:18
12002,2,2,4,4,ProcessingTask,604,1,TRUE,TRUE,10,4,4,18,33,13,20,0.988527724665392,,02-23-2015,14:45:18
12002,2,2,4,5,Recall,609,1,4,4,,4,4,18,33,13,20,0.988527724665392,,02-23-2015,14:45:18
12002,2,2,4,6,Recall,489,1,8,8,,4,4,18,33,13,20,0.988527724665392,,02-23-2015,14:45:18
12002,2,2,4,7,Recall,557,1,15,15,,4,4,18,33,13,20,0.988527724665392,,02-23-2015,14:45:18
12002,2,2,4,8,Recall,614,1,10,10,,4,4,18,33,13,20,0.988527724665392,,02-23-2015,14:45:18
12002,2,3,2,1,ProcessingTask,614,1,FALSE,FALSE,3,2,2,18,33,13,20,0.988527724665392,,02-23-2015,14:45:18
12002,2,3,2,2,ProcessingTask,529,1,TRUE,TRUE,14,2,2,18,33,13,20,0.988527724665392,,02-23-2015,14:45:18
12002,2,3,2,3,Recall,833,1,3,3,,2,2,18,33,13,20,0.988527724665392,,02-23-2015,14:45:18
12002,2,3,2,4,Recall,640,1,14,14,,2,2,18,33,13,20,0.988527724665392,,02-23-2015,14:45:18
12002,2,4,5,1,ProcessingTask,664,1,TRUE,TRUE,1,5,3,18,33,13,20,0.988527724665392,,02-23-2015,14:45:18
12002,2,4,5,2,ProcessingTask,569,1,FALSE,FALSE,2,5,3,18,33,13,20,0.988527724665392,,02-23-2015,14:45:18
12002,2,4,5,3,ProcessingTask,582,1,TRUE,TRUE,7,5,3,18,33,13,20,0.988527724665392,,02-23-2015,14:45:18
12002,2,4,5,4,ProcessingTask,610,1,FALSE,FALSE,2,5,3,18,33,13,20,0.988527724665392,,02-23-2015,14:45:18
12002,2,4,5,5,ProcessingTask,551,1,FALSE,FALSE,5,5,3,18,33,13,20,0.988527724665392,,02-23-2015,14:45:18
12002,2,4,5,6,Recall,1183,1,1,1,,5,3,18,33,13,20,0.988527724665392,,02-23-2015,14:45:18
12002,2,4,5,7,Recall,1024,1,2,2,,5,3,18,33,13,20,0.988527724665392,,02-23-2015,14:45:18
12002,2,4,5,8,Recall,2543,0,6,7,,5,3,18,33,13,20,0.988527724665392,,02-23-2015,14:45:18
12002,2,4,5,9,Recall,424,0,1,2,,5,3,18,33,13,20,0.988527724665392,,02-23-2015,14:45:18
12002,2,4,5,10,Recall,351,1,5,5,,5,3,18,33,13,20,0.988527724665392,,02-23-2015,14:45:18
12002,2,5,3,1,ProcessingTask,425,1,FALSE,FALSE,15,3,3,18,33,13,20,0.988527724665392,,02-23-2015,14:45:18
12002,2,5,3,2,ProcessingTask,559,1,FALSE,FALSE,8,3,3,18,33,13,20,0.988527724665392,,02-23-2015,14:45:18
12002,2,5,3,3,ProcessingTask,555,1,FALSE,FALSE,12,3,3,18,33,13,20,0.988527724665392,,02-23-2015,14:45:18
12002,2,5,3,4,Recall,467,1,15,15,,3,3,18,33,13,20,0.988527724665392,,02-23-2015,14:45:18
12002,2,5,3,5,Recall,470,1,8,8,,3,3,18,33,13,20,0.988527724665392,,02-23-2015,14:45:18
12002,2,5,3,6,Recall,243,1,12,12,,3,3,18,33,13,20,0.988527724665392,,02-23-2015,14:45:18
12002,2,6,6,1,ProcessingTask,526,1,TRUE,TRUE,7,6,4,18,33,13,20,0.988527724665392,,02-23-2015,14:45:18
12002,2,6,6,2,ProcessingTask,560,1,FALSE,FALSE,11,6,4,18,33,13,20,0.988527724665392,,02-23-2015,14:45:18
12002,2,6,6,3,ProcessingTask,601,1,FALSE,FALSE,3,6,4,18,33,13,20,0.988527724665392,,02-23-2015,14:45:18
12002,2,6,6,4,ProcessingTask,585,1,TRUE,TRUE,14,6,4,18,33,13,20,0.988527724665392,,02-23-2015,14:45:18
12002,2,6,6,5,ProcessingTask,523,1,FALSE,FALSE,10,6,4,18,33,13,20,0.988527724665392,,02-23-2015,14:45:18
12002,2,6,6,6,ProcessingTask,504,1,FALSE,FALSE,4,6,4,18,33,13,20,0.988527724665392,,02-23-2015,14:45:18
12002,2,6,6,7,Recall,1658,1,7,7,,6,4,18,33,13,20,0.988527724665392,,02-23-2015,14:45:18
12002,2,6,6,8,Recall,640,1,11,11,,6,4,18,33,13,20,0.988527724665392,,02-23-2015,14:45:18
12002,2,6,6,9,Recall,646,1,3,3,,6,4,18,33,13,20,0.988527724665392,,02-23-2015,14:45:18
12002,2,6,6,10,Recall,804,1,14,14,,6,4,18,33,13,20,0.988527724665392,,02-23-2015,14:45:18
12002,2,6,6,11,Recall,1219,0,4,10,,6,4,18,33,13,20,0.988527724665392,,02-23-2015,14:45:18
12006,1,1,7,1,ProcessingTask,1413,1,FALSE,FALSE,12,7,1,14,34,12,22,1,,02-23-2015,08:56:50
12006,1,1,7,2,ProcessingTask,829,1,FALSE,FALSE,5,7,1,14,34,12,22,1,,02-23-2015,08:56:50
12006,1,1,7,3,ProcessingTask,579,1,FALSE,FALSE,4,7,1,14,34,12,22,1,,02-23-2015,08:56:50
12006,1,1,7,4,ProcessingTask,762,1,FALSE,FALSE,3,7,1,14,34,12,22,1,,02-23-2015,08:56:50
12006,1,1,7,5,ProcessingTask,688,1,TRUE,TRUE,16,7,1,14,34,12,22,1,,02-23-2015,08:56:50
12006,1,1,7,6,ProcessingTask,1311,1,TRUE,TRUE,6,7,1,14,34,12,22,1,,02-23-2015,08:56:50
12006,1,1,7,7,ProcessingTask,713,1,TRUE,TRUE,11,7,1,14,34,12,22,1,,02-23-2015,08:56:50
12006,1,1,7,8,Recall,4195,0,11,12,,7,1,14,34,12,22,1,,02-23-2015,08:56:50
12006,1,1,7,9,Recall,7476,1,5,5,,7,1,14,34,12,22,1,,02-23-2015,08:56:50
12006,1,1,7,10,Recall,2658,0,3,4,,7,1,14,34,12,22,1,,02-23-2015,08:56:50
12006,1,1,7,11,Recall,528,0,16,3,,7,1,14,34,12,22,1,,02-23-2015,08:56:50
12006,1,1,7,12,Recall,11731,0,6,16,,7,1,14,34,12,22,1,,02-23-2015,08:56:50
12006,1,2,4,1,ProcessingTask,1966,1,FALSE,FALSE,9,4,0,14,34,12,22,1,,02-23-2015,08:56:50
12006,1,2,4,2,ProcessingTask,660,1,FALSE,FALSE,12,4,0,14,34,12,22,1,,02-23-2015,08:56:50
12006,1,2,4,3,ProcessingTask,744,1,FALSE,FALSE,11,4,0,14,34,12,22,1,,02-23-2015,08:56:50
12006,1,2,4,4,ProcessingTask,714,1,FALSE,FALSE,8,4,0,14,34,12,22,1,,02-23-2015,08:56:50
12006,1,2,4,5,Recall,956,0,12,9,,4,0,14,34,12,22,1,,02-23-2015,08:56:50
12006,1,2,4,6,Recall,629,0,5,12,,4,0,14,34,12,22,1,,02-23-2015,08:56:50
12006,1,2,4,7,Recall,604,0,8,11,,4,0,14,34,12,22,1,,02-23-2015,08:56:50
12006,1,2,4,8,Recall,6684,0,14,8,,4,0,14,34,12,22,1,,02-23-2015,08:56:50
12006,1,3,2,1,ProcessingTask,1876,1,FALSE,FALSE,12,2,2,14,34,12,22,1,,02-23-2015,08:56:50
12006,1,3,2,2,ProcessingTask,804,1,TRUE,TRUE,14,2,2,14,34,12,22,1,,02-23-2015,08:56:50
12006,1,3,2,3,Recall,897,1,12,12,,2,2,14,34,12,22,1,,02-23-2015,08:56:50
12006,1,3,2,4,Recall,501,1,14,14,,2,2,14,34,12,22,1,,02-23-2015,08:56:50
12006,1,4,6,1,ProcessingTask,980,1,TRUE,TRUE,13,6,5,14,34,12,22,1,,02-23-2015,08:56:50
12006,1,4,6,2,ProcessingTask,938,1,TRUE,TRUE,2,6,5,14,34,12,22,1,,02-23-2015,08:56:50
12006,1,4,6,3,ProcessingTask,780,1,FALSE,FALSE,10,6,5,14,34,12,22,1,,02-23-2015,08:56:50
12006,1,4,6,4,ProcessingTask,583,1,TRUE,TRUE,11,6,5,14,34,12,22,1,,02-23-2015,08:56:50
12006,1,4,6,5,ProcessingTask,633,1,TRUE,TRUE,1,6,5,14,34,12,22,1,,02-23-2015,08:56:50
12006,1,4,6,6,ProcessingTask,670,1,TRUE,TRUE,8,6,5,14,34,12,22,1,,02-23-2015,08:56:50
12006,1,4,6,7,Recall,800,1,13,13,,6,5,14,34,12,22,1,,02-23-2015,08:56:50
12006,1,4,6,8,Recall,679,0,3,2,,6,5,14,34,12,22,1,,02-23-2015,08:56:50
12006,1,4,6,9,Recall,643,1,10,10,,6,5,14,34,12,22,1,,02-23-2015,08:56:50
12006,1,4,6,10,Recall,522,1,11,11,,6,5,14,34,12,22,1,,02-23-2015,08:56:50
12006,1,4,6,11,Recall,573,1,1,1,,6,5,14,34,12,22,1,,02-23-2015,08:56:50
12006,1,4,6,12,Recall,590,1,8,8,,6,5,14,34,12,22,1,,02-23-2015,08:56:50
12006,1,5,5,1,ProcessingTask,1204,1,FALSE,FALSE,11,5,3,14,34,12,22,1,,02-23-2015,08:56:50
12006,1,5,5,2,ProcessingTask,954,1,TRUE,TRUE,16,5,3,14,34,12,22,1,,02-23-2015,08:56:50
12006,1,5,5,3,ProcessingTask,628,1,TRUE,TRUE,4,5,3,14,34,12,22,1,,02-23-2015,08:56:50
12006,1,5,5,4,ProcessingTask,1376,1,TRUE,TRUE,5,5,3,14,34,12,22,1,,02-23-2015,08:56:50
12006,1,5,5,5,ProcessingTask,619,1,FALSE,FALSE,9,5,3,14,34,12,22,1,,02-23-2015,08:56:50
12006,1,5,5,6,Recall,536,1,11,11,,5,3,14,34,12,22,1,,02-23-2015,08:56:50
12006,1,5,5,7,Recall,466,1,16,16,,5,3,14,34,12,22,1,,02-23-2015,08:56:50
12006,1,5,5,8,Recall,663,1,4,4,,5,3,14,34,12,22,1,,02-23-2015,08:56:50
12006,1,5,5,9,Recall,8315,0,9,5,,5,3,14,34,12,22,1,,02-23-2015,08:56:50
12006,1,5,5,10,Recall,417,0,10,9,,5,3,14,34,12,22,1,,02-23-2015,08:56:50
12006,1,6,3,1,ProcessingTask,853,1,TRUE,TRUE,16,3,1,14,34,12,22,1,,02-23-2015,08:56:50
12006,1,6,3,2,ProcessingTask,634,1,TRUE,TRUE,10,3,1,14,34,12,22,1,,02-23-2015,08:56:50
12006,1,6,3,3,ProcessingTask,844,1,FALSE,FALSE,7,3,1,14,34,12,22,1,,02-23-2015,08:56:50
12006,1,6,3,4,Recall,712,0,10,16,,3,1,14,34,12,22,1,,02-23-2015,08:56:50
12006,1,6,3,5,Recall,476,0,16,10,,3,1,14,34,12,22,1,,02-23-2015,08:56:50
12006,1,6,3,6,Recall,408,1,7,7,,3,1,14,34,12,22,1,,02-23-2015,08:56:50
12006,2,1,2,1,ProcessingTask,908,1,TRUE,TRUE,15,2,2,14,34,12,22,1,,02-23-2015,08:56:50
12006,2,1,2,2,ProcessingTask,1041,1,FALSE,FALSE,1,2,2,14,34,12,22,1,,02-23-2015,08:56:50
12006,2,1,2,3,Recall,510,1,15,15,,2,2,14,34,12,22,1,,02-23-2015,08:56:50
12006,2,1,2,4,Recall,490,1,1,1,,2,2,14,34,12,22,1,,02-23-2015,08:56:50
12006,2,2,7,1,ProcessingTask,931,1,TRUE,TRUE,4,7,7,14,34,12,22,1,,02-23-2015,08:56:50
12006,2,2,7,2,ProcessingTask,1038,1,TRUE,TRUE,7,7,7,14,34,12,22,1,,02-23-2015,08:56:50
12006,2,2,7,3,ProcessingTask,610,1,TRUE,TRUE,6,7,7,14,34,12,22,1,,02-23-2015,08:56:50
12006,2,2,7,4,ProcessingTask,516,1,FALSE,FALSE,9,7,7,14,34,12,22,1,,02-23-2015,08:56:50
12006,2,2,7,5,ProcessingTask,577,1,TRUE,TRUE,8,7,7,14,34,12,22,1,,02-23-2015,08:56:50
12006,2,2,7,6,ProcessingTask,719,1,FALSE,FALSE,16,7,7,14,34,12,22,1,,02-23-2015,08:56:50
12006,2,2,7,7,ProcessingTask,575,1,TRUE,TRUE,10,7,7,14,34,12,22,1,,02-23-2015,08:56:50
12006,2,2,7,8,Recall,978,1,4,4,,7,7,14,34,12,22,1,,02-23-2015,08:56:50
12006,2,2,7,9,Recall,387,1,7,7,,7,7,14,34,12,22,1,,02-23-2015,08:56:50
12006,2,2,7,10,Recall,276,1,6,6,,7,7,14,34,12,22,1,,02-23-2015,08:56:50
12006,2,2,7,11,Recall,344,1,9,9,,7,7,14,34,12,22,1,,02-23-2015,08:56:50
12006,2,2,7,12,Recall,594,1,8,8,,7,7,14,34,12,22,1,,02-23-2015,08:56:50
12006,2,2,7,13,Recall,611,1,16,16,,7,7,14,34,12,22,1,,02-23-2015,08:56:50
12006,2,2,7,14,Recall,2170,1,10,10,,7,7,14,34,12,22,1,,02-23-2015,08:56:50
12006,2,3,5,1,ProcessingTask,1619,1,TRUE,TRUE,2,5,4,14,34,12,22,1,,02-23-2015,08:56:50
12006,2,3,5,2,ProcessingTask,1202,1,FALSE,FALSE,11,5,4,14,34,12,22,1,,02-23-2015,08:56:50
12006,2,3,5,3,ProcessingTask,673,1,FALSE,FALSE,13,5,4,14,34,12,22,1,,02-23-2015,08:56:50
12006,2,3,5,4,ProcessingTask,504,1,FALSE,FALSE,5,5,4,14,34,12,22,1,,02-23-2015,08:56:50
12006,2,3,5,5,ProcessingTask,949,1,TRUE,TRUE,14,5,4,14,34,12,22,1,,02-23-2015,08:56:50
12006,2,3,5,6,Recall,3933,0,6,2,,5,4,14,34,12,22,1,,02-23-2015,08:56:50
12006,2,3,5,7,Recall,552,1,11,11,,5,4,14,34,12,22,1,,02-23-2015,08:56:50
12006,2,3,5,8,Recall,714,1,13,13,,5,4,14,34,12,22,1,,02-23-2015,08:56:50
12006,2,3,5,9,Recall,381,1,5,5,,5,4,14,34,12,22,1,,02-23-2015,08:56:50
12006,2,3,5,10,Recall,597,1,14,14,,5,4,14,34,12,22,1,,02-23-2015,08:56:50
12006,2,4,4,1,ProcessingTask,1756,1,TRUE,TRUE,3,4,2,14,34,12,22,1,,02-23-2015,08:56:50
12006,2,4,4,2,ProcessingTask,595,1,FALSE,FALSE,12,4,2,14,34,12,22,1,,02-23-2015,08:56:50
12006,2,4,4,3,ProcessingTask,1651,1,FALSE,FALSE,7,4,2,14,34,12,22,1,,02-23-2015,08:56:50
12006,2,4,4,4,ProcessingTask,562,1,FALSE,FALSE,3,4,2,14,34,12,22,1,,02-23-2015,08:56:50
12006,2,4,4,5,Recall,5569,0,7,3,,4,2,14,34,12,22,1,,02-23-2015,08:56:50
12006,2,4,4,6,Recall,451,1,12,12,,4,2,14,34,12,22,1,,02-23-2015,08:56:50
12006,2,4,4,7,Recall,433,0,10,7,,4,2,14,34,12,22,1,,02-23-2015,08:56:50
12006,2,4,4,8,Recall,383,1,3,3,,4,2,14,34,12,22,1,,02-23-2015,08:56:50
12006,2,5,3,1,ProcessingTask,1034,1,FALSE,FALSE,12,3,3,14,34,12,22,1,,02-23-2015,08:56:50
12006,2,5,3,2,ProcessingTask,710,1,FALSE,FALSE,1,3,3,14,34,12,22,1,,02-23-2015,08:56:50
12006,2,5,3,3,ProcessingTask,789,1,TRUE,TRUE,14,3,3,14,34,12,22,1,,02-23-2015,08:56:50
12006,2,5,3,4,Recall,692,1,12,12,,3,3,14,34,12,22,1,,02-23-2015,08:56:50
12006,2,5,3,5,Recall,529,1,1,1,,3,3,14,34,12,22,1,,02-23-2015,08:56:50
12006,2,5,3,6,Recall,515,1,14,14,,3,3,14,34,12,22,1,,02-23-2015,08:56:50
12006,2,6,6,1,ProcessingTask,699,1,TRUE,TRUE,11,6,4,14,34,12,22,1,,02-23-2015,08:56:50
12006,2,6,6,2,ProcessingTask,635,1,TRUE,TRUE,16,6,4,14,34,12,22,1,,02-23-2015,08:56:50
12006,2,6,6,3,ProcessingTask,529,1,FALSE,FALSE,10,6,4,14,34,12,22,1,,02-23-2015,08:56:50
12006,2,6,6,4,ProcessingTask,589,1,FALSE,FALSE,2,6,4,14,34,12,22,1,,02-23-2015,08:56:50
12006,2,6,6,5,ProcessingTask,514,1,FALSE,FALSE,8,6,4,14,34,12,22,1,,02-23-2015,08:56:50
12006,2,6,6,6,ProcessingTask,846,1,TRUE,TRUE,4,6,4,14,34,12,22,1,,02-23-2015,08:56:50
12006,2,6,6,7,Recall,401,1,11,11,,6,4,14,34,12,22,1,,02-23-2015,08:56:50
12006,2,6,6,8,Recall,401,1,16,16,,6,4,14,34,12,22,1,,02-23-2015,08:56:50
12006,2,6,6,9,Recall,480,1,10,10,,6,4,14,34,12,22,1,,02-23-2015,08:56:50
12006,2,6,6,10,Recall,428,0,3,2,,6,4,14,34,12,22,1,,02-23-2015,08:56:50
12006,2,6,6,11,Recall,307,1,8,8,,6,4,14,34,12,22,1,,02-23-2015,08:56:50
12008,1,1,2,1,ProcessingTask,1015,1,TRUE,TRUE,2,2,1,16,19,9,10,0.9669260700389105,,03-13-2015,11:59:42
12008,1,1,2,2,ProcessingTask,512,1,TRUE,TRUE,6,2,1,16,19,9,10,0.9669260700389105,,03-13-2015,11:59:42
12008,1,1,2,3,Recall,545,0,10,2,,2,1,16,19,9,10,0.9669260700389105,,03-13-2015,11:59:42
12008,1,1,2,4,Recall,363,1,6,6,,2,1,16,19,9,10,0.9669260700389105,,03-13-2015,11:59:42
12008,1,2,7,1,ProcessingTask,661,1,FALSE,FALSE,2,7,7,16,19,9,10,0.9669260700389105,,03-13-2015,11:59:42
12008,1,2,7,2,ProcessingTask,1190,1,TRUE,TRUE,6,7,7,16,19,9,10,0.9669260700389105,,03-13-2015,11:59:42
12008,1,2,7,3,ProcessingTask,559,1,FALSE,FALSE,10,7,7,16,19,9,10,0.9669260700389105,,03-13-2015,11:59:42
12008,1,2,7,4,ProcessingTask,816,1,TRUE,TRUE,7,7,7,16,19,9,10,0.9669260700389105,,03-13-2015,11:59:42
12008,1,2,7,5,ProcessingTask,651,1,TRUE,TRUE,11,7,7,16,19,9,10,0.9669260700389105,,03-13-2015,11:59:42
12008,1,2,7,6,ProcessingTask,598,1,TRUE,TRUE,8,7,7,16,19,9,10,0.9669260700389105,,03-13-2015,11:59:42
12008,1,2,7,7,ProcessingTask,689,1,FALSE,FALSE,5,7,7,16,19,9,10,0.9669260700389105,,03-13-2015,11:59:42
12008,1,2,7,8,Recall,828,1,2,2,,7,7,16,19,9,10,0.9669260700389105,,03-13-2015,11:59:42
12008,1,2,7,9,Recall,315,1,6,6,,7,7,16,19,9,10,0.9669260700389105,,03-13-2015,11:59:42
12008,1,2,7,10,Recall,333,1,10,10,,7,7,16,19,9,10,0.9669260700389105,,03-13-2015,11:59:42
12008,1,2,7,11,Recall,687,1,7,7,,7,7,16,19,9,10,0.9669260700389105,,03-13-2015,11:59:42
12008,1,2,7,12,Recall,299,1,11,11,,7,7,16,19,9,10,0.9669260700389105,,03-13-2015,11:59:42
12008,1,2,7,13,Recall,430,1,8,8,,7,7,16,19,9,10,0.9669260700389105,,03-13-2015,11:59:42
12008,1,2,7,14,Recall,396,1,5,5,,7,7,16,19,9,10,0.9669260700389105,,03-13-2015,11:59:42
12008,1,3,6,1,ProcessingTask,689,1,TRUE,TRUE,1,6,0,16,19,9,10,0.9669260700389105,,03-13-2015,11:59:42
12008,1,3,6,2,ProcessingTask,733,1,FALSE,FALSE,16,6,0,16,19,9,10,0.9669260700389105,,03-13-2015,11:59:42
12008,1,3,6,3,ProcessingTask,449,1,FALSE,FALSE,2,6,0,16,19,9,10,0.9669260700389105,,03-13-2015,11:59:42
12008,1,3,6,4,ProcessingTask,482,1,FALSE,FALSE,4,6,0,16,19,9,10,0.9669260700389105,,03-13-2015,11:59:42
12008,1,3,6,5,ProcessingTask,831,1,TRUE,TRUE,8,6,0,16,19,9,10,0.9669260700389105,,03-13-2015,11:59:42
12008,1,3,6,6,ProcessingTask,1036,1,FALSE,FALSE,15,6,0,16,19,9,10,0.9669260700389105,,03-13-2015,11:59:42
12008,1,3,6,7,Recall,745,0,5,1,,6,0,16,19,9,10,0.9669260700389105,,03-13-2015,11:59:42
12008,1,3,6,8,Recall,1443,0,8,16,,6,0,16,19,9,10,0.9669260700389105,,03-13-2015,11:59:42
12008,1,3,6,9,Recall,314,0,11,2,,6,0,16,19,9,10,0.9669260700389105,,03-13-2015,11:59:42
12008,1,3,6,10,Recall,380,0,10,4,,6,0,16,19,9,10,0.9669260700389105,,03-13-2015,11:59:42
12008,1,3,6,11,Recall,509,0,9,8,,6,0,16,19,9,10,0.9669260700389105,,03-13-2015,11:59:42
12008,1,4,5,1,ProcessingTask,687,1,FALSE,FALSE,14,4,1,16,19,9,10,0.9669260700389105,,03-13-2015,11:59:42
12008,1,4,5,2,ProcessingTask,596,1,FALSE,FALSE,16,4,1,16,19,9,10,0.9669260700389105,,03-13-2015,11:59:42
12008,1,4,5,3,ProcessingTask,650,1,TRUE,TRUE,11,4,1,16,19,9,10,0.9669260700389105,,03-13-2015,11:59:42
12008,1,4,5,4,ProcessingTask,467,1,TRUE,TRUE,1,4,1,16,19,9,10,0.9669260700389105,,03-13-2015,11:59:42
12008,1,4,5,5,ProcessingTask,1835,0,TRUE,FALSE,5,4,1,16,19,9,10,0.9669260700389105,,03-13-2015,11:59:42
12008,1,4,5,6,Recall,903,0,1,14,,4,1,16,19,9,10,0.9669260700389105,,03-13-2015,11:59:42
12008,1,4,5,7,Recall,266,0,5,16,,4,1,16,19,9,10,0.9669260700389105,,03-13-2015,11:59:42
12008,1,4,5,8,Recall,383,1,11,11,,4,1,16,19,9,10,0.9669260700389105,,03-13-2015,11:59:42
12008,1,4,5,9,Recall,639,0,7,1,,4,1,16,19,9,10,0.9669260700389105,,03-13-2015,11:59:42
12008,1,5,4,1,ProcessingTask,727,1,FALSE,FALSE,11,3,0,16,19,9,10,0.9669260700389105,,03-13-2015,11:59:42
12008,1,5,4,2,ProcessingTask,1870,0,FALSE,TRUE,13,3,0,16,19,9,10,0.9669260700389105,,03-13-2015,11:59:42
12008,1,5,4,3,ProcessingTask,571,1,TRUE,TRUE,14,3,0,16,19,9,10,0.9669260700389105,,03-13-2015,11:59:42
12008,1,5,4,4,ProcessingTask,549,1,FALSE,FALSE,15,3,0,16,19,9,10,0.9669260700389105,,03-13-2015,11:59:42
12008,1,5,4,5,Recall,1172,0,1,11,,3,0,16,19,9,10,0.9669260700389105,,03-13-2015,11:59:42
12008,1,5,4,6,Recall,220,0,5,13,,3,0,16,19,9,10,0.9669260700389105,,03-13-2015,11:59:42
12008,1,5,4,7,Recall,403,0,7,14,,3,0,16,19,9,10,0.9669260700389105,,03-13-2015,11:59:42
12008,1,5,4,8,Recall,458,0,9,15,,3,0,16,19,9,10,0.9669260700389105,,03-13-2015,11:59:42
12008,1,6,3,1,ProcessingTask,677,1,FALSE,FALSE,14,3,0,16,19,9,10,0.9669260700389105,,03-13-2015,11:59:42
12008,1,6,3,2,ProcessingTask,681,1,TRUE,TRUE,2,3,0,16,19,9,10,0.9669260700389105,,03-13-2015,11:59:42
12008,1,6,3,3,ProcessingTask,748,1,FALSE,FALSE,6,3,0,16,19,9,10,0.9669260700389105,,03-13-2015,11:59:42
12008,1,6,3,4,Recall,632,0,1,14,,3,0,16,19,9,10,0.9669260700389105,,03-13-2015,11:59:42
12008,1,6,3,5,Recall,358,0,7,2,,3,0,16,19,9,10,0.9669260700389105,,03-13-2015,11:59:42
12008,1,6,3,6,Recall,495,0,9,6,,3,0,16,19,9,10,0.9669260700389105,,03-13-2015,11:59:42
12008,2,1,7,1,ProcessingTask,638,1,FALSE,FALSE,14,7,0,16,19,9,10,0.9669260700389105,,03-13-2015,11:59:42
12008,2,1,7,2,ProcessingTask,984,1,FALSE,FALSE,9,7,0,16,19,9,10,0.9669260700389105,,03-13-2015,11:59:42
12008,2,1,7,3,ProcessingTask,829,1,TRUE,TRUE,12,7,0,16,19,9,10,0.9669260700389105,,03-13-2015,11:59:42
12008,2,1,7,4,ProcessingTask,534,1,TRUE,TRUE,3,7,0,16,19,9,10,0.9669260700389105,,03-13-2015,11:59:42
12008,2,1,7,5,ProcessingTask,486,1,TRUE,TRUE,6,7,0,16,19,9,10,0.9669260700389105,,03-13-2015,11:59:42
12008,2,1,7,6,ProcessingTask,551,1,FALSE,FALSE,5,7,0,16,19,9,10,0.9669260700389105,,03-13-2015,11:59:42
12008,2,1,7,7,ProcessingTask,515,1,FALSE,FALSE,7,7,0,16,19,9,10,0.9669260700389105,,03-13-2015,11:59:42
12008,2,1,7,8,Recall,548,0,3,14,,7,0,16,19,9,10,0.9669260700389105,,03-13-2015,11:59:42
12008,2,1,7,9,Recall,518,0,5,9,,7,0,16,19,9,10,0.9669260700389105,,03-13-2015,11:59:42
12008,2,1,7,10,Recall,617,0,11,12,,7,0,16,19,9,10,0.9669260700389105,,03-13-2015,11:59:42
12008,2,1,7,11,Recall,799,0,9,3,,7,0,16,19,9,10,0.9669260700389105,,03-13-2015,11:59:42
12008,2,1,7,12,Recall,462,0,7,6,,7,0,16,19,9,10,0.9669260700389105,,03-13-2015,11:59:42
12008,2,2,6,1,ProcessingTask,630,1,FALSE,FALSE,2,6,1,16,19,9,10,0.9669260700389105,,03-13-2015,11:59:42
12008,2,2,6,2,ProcessingTask,605,1,TRUE,TRUE,11,6,1,16,19,9,10,0.9669260700389105,,03-13-2015,11:59:42
12008,2,2,6,3,ProcessingTask,774,1,TRUE,TRUE,13,6,1,16,19,9,10,0.9669260700389105,,03-13-2015,11:59:42
12008,2,2,6,4,ProcessingTask,791,1,TRUE,TRUE,10,6,1,16,19,9,10,0.9669260700389105,,03-13-2015,11:59:42
12008,2,2,6,5,ProcessingTask,446,1,TRUE,TRUE,4,6,1,16,19,9,10,0.9669260700389105,,03-13-2015,11:59:42
12008,2,2,6,6,ProcessingTask,631,1,FALSE,FALSE,8,6,1,16,19,9,10,0.9669260700389105,,03-13-2015,11:59:42
12008,2,2,6,7,Recall,2762,1,2,2,,6,1,16,19,9,10,0.9669260700389105,,03-13-2015,11:59:42
12008,2,2,6,8,Recall,428,0,5,11,,6,1,16,19,9,10,0.9669260700389105,,03-13-2015,11:59:42
12008,2,2,6,9,Recall,1427,0,10,13,,6,1,16,19,9,10,0.9669260700389105,,03-13-2015,11:59:42
12008,2,2,6,10,Recall,578,0,4,10,,6,1,16,19,9,10,0.9669260700389105,,03-13-2015,11:59:42
12008,2,3,5,1,ProcessingTask,652,1,FALSE,FALSE,15,5,0,16,19,9,10,0.9669260700389105,,03-13-2015,11:59:42
12008,2,3,5,2,ProcessingTask,825,1,TRUE,TRUE,16,5,0,16,19,9,10,0.9669260700389105,,03-13-2015,11:59:42
12008,2,3,5,3,ProcessingTask,905,1,FALSE,FALSE,1,5,0,16,19,9,10,0.9669260700389105,,03-13-2015,11:59:42
12008,2,3,5,4,ProcessingTask,1203,1,TRUE,TRUE,8,5,0,16,19,9,10,0.9669260700389105,,03-13-2015,11:59:42
12008,2,3,5,5,ProcessingTask,949,1,TRUE,TRUE,5,5,0,16,19,9,10,0.9669260700389105,,03-13-2015,11:59:42
12008,2,3,5,6,Recall,1061,0,3,15,,5,0,16,19,9,10,0.9669260700389105,,03-13-2015,11:59:42
12008,2,3,5,7,Recall,979,0,11,16,,5,0,16,19,9,10,0.9669260700389105,,03-13-2015,11:59:42
12008,2,3,5,8,Recall,332,0,8,1,,5,0,16,19,9,10,0.9669260700389105,,03-13-2015,11:59:42
12008,2,3,5,9,Recall,550,0,5,8,,5,0,16,19,9,10,0.9669260700389105,,03-13-2015,11:59:42
12008,2,4,2,1,ProcessingTask,1157,1,TRUE,TRUE,1,2,2,16,19,9,10,0.9669260700389105,,03-13-2015,11:59:42
12008,2,4,2,2,ProcessingTask,436,1,TRUE,TRUE,2,2,2,16,19,9,10,0.9669260700389105,,03-13-2015,11:59:42
12008,2,4,2,3,Recall,760,1,1,1,,2,2,16,19,9,10,0.9669260700389105,,03-13-2015,11:59:42
12008,2,4,2,4,Recall,362,1,2,2,,2,2,16,19,9,10,0.9669260700389105,,03-13-2015,11:59:42
12008,2,5,4,1,ProcessingTask,551,1,FALSE,FALSE,3,4,4,16,19,9,10,0.9669260700389105,,03-13-2015,11:59:42
12008,2,5,4,2,ProcessingTask,759,1,TRUE,TRUE,11,4,4,16,19,9,10,0.9669260700389105,,03-13-2015,11:59:42
12008,2,5,4,3,ProcessingTask,1277,1,TRUE,TRUE,10,4,4,16,19,9,10,0.9669260700389105,,03-13-2015,11:59:42
12008,2,5,4,4,ProcessingTask,931,1,TRUE,TRUE,14,4,4,16,19,9,10,0.9669260700389105,,03-13-2015,11:59:42
12008,2,5,4,5,Recall,866,1,3,3,,4,4,16,19,9,10,0.9669260700389105,,03-13-2015,11:59:42
12008,2,5,4,6,Recall,879,1,11,11,,4,4,16,19,9,10,0.9669260700389105,,03-13-2015,11:59:42
12008,2,5,4,7,Recall,349,1,10,10,,4,4,16,19,9,10,0.9669260700389105,,03-13-2015,11:59:42
12008,2,5,4,8,Recall,334,1,14,14,,4,4,16,19,9,10,0.9669260700389105,,03-13-2015,11:59:42
12008,2,6,3,1,ProcessingTask,1175,1,TRUE,TRUE,4,3,3,16,19,9,10,0.9669260700389105,,03-13-2015,11:59:42
12008,2,6,3,2,ProcessingTask,657,1,FALSE,FALSE,13,3,3,16,19,9,10,0.9669260700389105,,03-13-2015,11:59:42
12008,2,6,3,3,ProcessingTask,488,1,FALSE,FALSE,7,3,3,16,19,9,10,0.9669260700389105,,03-13-2015,11:59:42
12008,2,6,3,4,Recall,547,1,4,4,,3,3,16,19,9,10,0.9669260700389105,,03-13-2015,11:59:42
12008,2,6,3,5,Recall,445,1,13,13,,3,3,16,19,9,10,0.9669260700389105,,03-13-2015,11:59:42
12008,2,6,3,6,Recall,443,1,7,7,,3,3,16,19,9,10,0.9669260700389105,,03-13-2015,11:59:42
12010,1,1,3,1,ProcessingTask,768,1,FALSE,FALSE,10,3,3,23,31,21,10,0.9742647058823529,,04-16-2015,16:01:09
12010,1,1,3,2,ProcessingTask,790,1,TRUE,TRUE,2,3,3,23,31,21,10,0.9742647058823529,,04-16-2015,16:01:09
12010,1,1,3,3,ProcessingTask,627,1,FALSE,FALSE,9,3,3,23,31,21,10,0.9742647058823529,,04-16-2015,16:01:09
12010,1,1,3,4,Recall,785,1,10,10,,3,3,23,31,21,10,0.9742647058823529,,04-16-2015,16:01:09
12010,1,1,3,5,Recall,417,1,2,2,,3,3,23,31,21,10,0.9742647058823529,,04-16-2015,16:01:09
12010,1,1,3,6,Recall,480,1,9,9,,3,3,23,31,21,10,0.9742647058823529,,04-16-2015,16:01:09
12010,1,2,4,1,ProcessingTask,652,1,TRUE,TRUE,6,4,4,23,31,21,10,0.9742647058823529,,04-16-2015,16:01:09
12010,1,2,4,2,ProcessingTask,749,1,TRUE,TRUE,5,4,4,23,31,21,10,0.9742647058823529,,04-16-2015,16:01:09
12010,1,2,4,3,ProcessingTask,549,1,TRUE,TRUE,14,4,4,23,31,21,10,0.9742647058823529,,04-16-2015,16:01:09
12010,1,2,4,4,ProcessingTask,519,1,FALSE,FALSE,4,4,4,23,31,21,10,0.9742647058823529,,04-16-2015,16:01:09
12010,1,2,4,5,Recall,599,1,6,6,,4,4,23,31,21,10,0.9742647058823529,,04-16-2015,16:01:09
12010,1,2,4,6,Recall,367,1,5,5,,4,4,23,31,21,10,0.9742647058823529,,04-16-2015,16:01:09
12010,1,2,4,7,Recall,432,1,14,14,,4,4,23,31,21,10,0.9742647058823529,,04-16-2015,16:01:09
12010,1,2,4,8,Recall,566,1,4,4,,4,4,23,31,21,10,0.9742647058823529,,04-16-2015,16:01:09
12010,1,3,2,1,ProcessingTask,603,1,FALSE,FALSE,4,2,2,23,31,21,10,0.9742647058823529,,04-16-2015,16:01:09
12010,1,3,2,2,ProcessingTask,510,1,TRUE,TRUE,7,2,2,23,31,21,10,0.9742647058823529,,04-16-2015,16:01:09
12010,1,3,2,3,Recall,781,1,4,4,,2,2,23,31,21,10,0.9742647058823529,,04-16-2015,16:01:09
12010,1,3,2,4,Recall,351,1,7,7,,2,2,23,31,21,10,0.9742647058823529,,04-16-2015,16:01:09
12010,1,4,6,1,ProcessingTask,538,1,FALSE,FALSE,7,6,2,23,31,21,10,0.9742647058823529,,04-16-2015,16:01:09
12010,1,4,6,2,ProcessingTask,571,1,TRUE,TRUE,3,6,2,23,31,21,10,0.9742647058823529,,04-16-2015,16:01:09
12010,1,4,6,3,ProcessingTask,559,1,FALSE,FALSE,11,6,2,23,31,21,10,0.9742647058823529,,04-16-2015,16:01:09
12010,1,4,6,4,ProcessingTask,495,1,TRUE,TRUE,2,6,2,23,31,21,10,0.9742647058823529,,04-16-2015,16:01:09
12010,1,4,6,5,ProcessingTask,1135,1,TRUE,TRUE,10,6,2,23,31,21,10,0.9742647058823529,,04-16-2015,16:01:09
12010,1,4,6,6,ProcessingTask,595,1,TRUE,TRUE,1,6,2,23,31,21,10,0.9742647058823529,,04-16-2015,16:01:09
12010,1,4,6,7,Recall,450,1,7,7,,6,2,23,31,21,10,0.9742647058823529,,04-16-2015,16:01:09
12010,1,4,6,8,Recall,423,1,3,3,,6,2,23,31,21,10,0.9742647058823529,,04-16-2015,16:01:09
12010,1,4,6,9,Recall,902,0,2,11,,6,2,23,31,21,10,0.9742647058823529,,04-16-2015,16:01:09
12010,1,4,6,10,Recall,402,0,10,2,,6,2,23,31,21,10,0.9742647058823529,,04-16-2015,16:01:09
12010,1,4,6,11,Recall,545,0,1,10,,6,2,23,31,21,10,0.9742647058823529,,04-16-2015,16:01:09
12010,1,5,7,1,ProcessingTask,604,1,TRUE,TRUE,2,7,5,23,31,21,10,0.9742647058823529,,04-16-2015,16:01:09
12010,1,5,7,2,ProcessingTask,715,1,FALSE,FALSE,1,7,5,23,31,21,10,0.9742647058823529,,04-16-2015,16:01:09
12010,1,5,7,3,ProcessingTask,545,1,TRUE,TRUE,9,7,5,23,31,21,10,0.9742647058823529,,04-16-2015,16:01:09
12010,1,5,7,4,ProcessingTask,531,1,TRUE,TRUE,16,7,5,23,31,21,10,0.9742647058823529,,04-16-2015,16:01:09
12010,1,5,7,5,ProcessingTask,538,1,TRUE,TRUE,3,7,5,23,31,21,10,0.9742647058823529,,04-16-2015,16:01:09
12010,1,5,7,6,ProcessingTask,690,1,FALSE,FALSE,12,7,5,23,31,21,10,0.9742647058823529,,04-16-2015,16:01:09
12010,1,5,7,7,ProcessingTask,525,1,TRUE,TRUE,10,7,5,23,31,21,10,0.9742647058823529,,04-16-2015,16:01:09
12010,1,5,7,8,Recall,733,0,6,2,,7,5,23,31,21,10,0.9742647058823529,,04-16-2015,16:01:09
12010,1,5,7,9,Recall,368,1,1,1,,7,5,23,31,21,10,0.9742647058823529,,04-16-2015,16:01:09
12010,1,5,7,10,Recall,416,1,9,9,,7,5,23,31,21,10,0.9742647058823529,,04-16-2015,16:01:09
12010,1,5,7,11,Recall,951,1,16,16,,7,5,23,31,21,10,0.9742647058823529,,04-16-2015,16:01:09
12010,1,5,7,12,Recall,376,1,3,3,,7,5,23,31,21,10,0.9742647058823529,,04-16-2015,16:01:09
12010,1,5,7,13,Recall,1017,0,2,12,,7,5,23,31,21,10,0.9742647058823529,,04-16-2015,16:01:09
12010,1,5,7,14,Recall,392,1,10,10,,7,5,23,31,21,10,0.9742647058823529,,04-16-2015,16:01:09
12010,1,6,5,1,ProcessingTask,855,1,TRUE,TRUE,10,5,5,23,31,21,10,0.9742647058823529,,04-16-2015,16:01:09
12010,1,6,5,2,ProcessingTask,683,1,FALSE,FALSE,6,5,5,23,31,21,10,0.9742647058823529,,04-16-2015,16:01:09
12010,1,6,5,3,ProcessingTask,814,1,TRUE,TRUE,14,5,5,23,31,21,10,0.9742647058823529,,04-16-2015,16:01:09
12010,1,6,5,4,ProcessingTask,715,1,FALSE,FALSE,16,5,5,23,31,21,10,0.9742647058823529,,04-16-2015,16:01:09
12010,1,6,5,5,ProcessingTask,405,1,TRUE,TRUE,5,5,5,23,31,21,10,0.9742647058823529,,04-16-2015,16:01:09
12010,1,6,5,6,Recall,571,1,10,10,,5,5,23,31,21,10,0.9742647058823529,,04-16-2015,16:01:09
12010,1,6,5,7,Recall,291,1,6,6,,5,5,23,31,21,10,0.9742647058823529,,04-16-2015,16:01:09
12010,1,6,5,8,Recall,439,1,14,14,,5,5,23,31,21,10,0.9742647058823529,,04-16-2015,16:01:09
12010,1,6,5,9,Recall,358,1,16,16,,5,5,23,31,21,10,0.9742647058823529,,04-16-2015,16:01:09
12010,1,6,5,10,Recall,607,1,5,5,,5,5,23,31,21,10,0.9742647058823529,,04-16-2015,16:01:09
12010,2,1,5,1,ProcessingTask,677,1,FALSE,FALSE,11,5,0,23,31,21,10,0.9742647058823529,,04-16-2015,16:01:09
12010,2,1,5,2,ProcessingTask,586,1,TRUE,TRUE,2,5,0,23,31,21,10,0.9742647058823529,,04-16-2015,16:01:09
12010,2,1,5,3,ProcessingTask,563,1,TRUE,TRUE,9,5,0,23,31,21,10,0.9742647058823529,,04-16-2015,16:01:09
12010,2,1,5,4,ProcessingTask,1247,1,FALSE,FALSE,16,5,0,23,31,21,10,0.9742647058823529,,04-16-2015,16:01:09
12010,2,1,5,5,ProcessingTask,664,1,FALSE,FALSE,13,5,0,23,31,21,10,0.9742647058823529,,04-16-2015,16:01:09
12010,2,1,5,6,Recall,3282,0,7,11,,5,0,23,31,21,10,0.9742647058823529,,04-16-2015,16:01:09
12010,2,1,5,7,Recall,591,0,9,2,,5,0,23,31,21,10,0.9742647058823529,,04-16-2015,16:01:09
12010,2,1,5,8,Recall,375,0,15,9,,5,0,23,31,21,10,0.9742647058823529,,04-16-2015,16:01:09
12010,2,1,5,9,Recall,296,0,13,16,,5,0,23,31,21,10,0.9742647058823529,,04-16-2015,16:01:09
12010,2,1,5,10,Recall,324,0,16,13,,5,0,23,31,21,10,0.9742647058823529,,04-16-2015,16:01:09
12010,2,2,7,1,ProcessingTask,527,1,FALSE,FALSE,6,6,1,23,31,21,10,0.9742647058823529,,04-16-2015,16:01:09
12010,2,2,7,2,ProcessingTask,638,1,TRUE,TRUE,15,6,1,23,31,21,10,0.9742647058823529,,04-16-2015,16:01:09
12010,2,2,7,3,ProcessingTask,501,1,FALSE,FALSE,5,6,1,23,31,21,10,0.9742647058823529,,04-16-2015,16:01:09
12010,2,2,7,4,ProcessingTask,738,0,TRUE,FALSE,7,6,1,23,31,21,10,0.9742647058823529,,04-16-2015,16:01:09
12010,2,2,7,5,ProcessingTask,1483,1,FALSE,FALSE,4,6,1,23,31,21,10,0.9742647058823529,,04-16-2015,16:01:09
12010,2,2,7,6,ProcessingTask,779,1,FALSE,FALSE,10,6,1,23,31,21,10,0.9742647058823529,,04-16-2015,16:01:09
12010,2,2,7,7,ProcessingTask,737,1,FALSE,FALSE,1,6,1,23,31,21,10,0.9742647058823529,,04-16-2015,16:01:09
12010,2,2,7,8,Recall,3738,0,blank,6,,6,1,23,31,21,10,0.9742647058823529,,04-16-2015,16:01:09
12010,2,2,7,9,Recall,133,0,blank,15,,6,1,23,31,21,10,0.9742647058823529,,04-16-2015,16:01:09
12010,2,2,7,10,Recall,823,0,7,5,,6,1,23,31,21,10,0.9742647058823529,,04-16-2015,16:01:09
12010,2,2,7,11,Recall,686,0,4,7,,6,1,23,31,21,10,0.9742647058823529,,04-16-2015,16:01:09
12010,2,2,7,12,Recall,650,0,1,4,,6,1,23,31,21,10,0.9742647058823529,,04-16-2015,16:01:09
12010,2,2,7,13,Recall,519,1,10,10,,6,1,23,31,21,10,0.9742647058823529,,04-16-2015,16:01:09
12010,2,2,7,14,Recall,306,0,14,1,,6,1,23,31,21,10,0.9742647058823529,,04-16-2015,16:01:09
12010,2,3,2,1,ProcessingTask,852,1,FALSE,FALSE,3,2,2,23,31,21,10,0.9742647058823529,,04-16-2015,16:01:09
12010,2,3,2,2,ProcessingTask,613,1,TRUE,TRUE,14,2,2,23,31,21,10,0.9742647058823529,,04-16-2015,16:01:09
12010,2,3,2,3,Recall,779,1,3,3,,2,2,23,31,21,10,0.9742647058823529,,04-16-2015,16:01:09
12010,2,3,2,4,Recall,603,1,14,14,,2,2,23,31,21,10,0.9742647058823529,,04-16-2015,16:01:09
12010,2,4,6,1,ProcessingTask,613,1,FALSE,FALSE,12,6,0,23,31,21,10,0.9742647058823529,,04-16-2015,16:01:09
12010,2,4,6,2,ProcessingTask,533,1,FALSE,FALSE,8,6,0,23,31,21,10,0.9742647058823529,,04-16-2015,16:01:09
12010,2,4,6,3,ProcessingTask,643,1,TRUE,TRUE,9,6,0,23,31,21,10,0.9742647058823529,,04-16-2015,16:01:09
12010,2,4,6,4,ProcessingTask,1704,1,TRUE,TRUE,2,6,0,23,31,21,10,0.9742647058823529,,04-16-2015,16:01:09
12010,2,4,6,5,ProcessingTask,618,1,FALSE,FALSE,14,6,0,23,31,21,10,0.9742647058823529,,04-16-2015,16:01:09
12010,2,4,6,6,ProcessingTask,533,1,FALSE,FALSE,7,6,0,23,31,21,10,0.9742647058823529,,04-16-2015,16:01:09
12010,2,4,6,7,Recall,3877,0,blank,12,,6,0,23,31,21,10,0.9742647058823529,,04-16-2015,16:01:09
12010,2,4,6,8,Recall,139,0,blank,8,,6,0,23,31,21,10,0.9742647058823529,,04-16-2015,16:01:09
12010,2,4,6,9,Recall,1781,0,2,9,,6,0,23,31,21,10,0.9742647058823529,,04-16-2015,16:01:09
12010,2,4,6,10,Recall,900,0,blank,2,,6,0,23,31,21,10,0.9742647058823529,,04-16-2015,16:01:09
12010,2,4,6,11,Recall,527,0,7,14,,6,0,23,31,21,10,0.9742647058823529,,04-16-2015,16:01:09
12010,2,5,3,1,ProcessingTask,645,1,TRUE,TRUE,1,3,3,23,31,21,10,0.9742647058823529,,04-16-2015,16:01:09
12010,2,5,3,2,ProcessingTask,549,1,TRUE,TRUE,8,3,3,23,31,21,10,0.9742647058823529,,04-16-2015,16:01:09
12010,2,5,3,3,ProcessingTask,579,1,FALSE,FALSE,12,3,3,23,31,21,10,0.9742647058823529,,04-16-2015,16:01:09
12010,2,5,3,4,Recall,811,1,1,1,,3,3,23,31,21,10,0.9742647058823529,,04-16-2015,16:01:09
12010,2,5,3,5,Recall,730,1,8,8,,3,3,23,31,21,10,0.9742647058823529,,04-16-2015,16:01:09
12010,2,5,3,6,Recall,348,1,12,12,,3,3,23,31,21,10,0.9742647058823529,,04-16-2015,16:01:09
12010,2,6,4,1,ProcessingTask,721,1,FALSE,FALSE,10,4,4,23,31,21,10,0.9742647058823529,,04-16-2015,16:01:09
12010,2,6,4,2,ProcessingTask,506,1,FALSE,FALSE,5,4,4,23,31,21,10,0.9742647058823529,,04-16-2015,16:01:09
12010,2,6,4,3,ProcessingTask,471,1,FALSE,FALSE,13,4,4,23,31,21,10,0.9742647058823529,,04-16-2015,16:01:09
12010,2,6,4,4,ProcessingTask,600,1,FALSE,FALSE,11,4,4,23,31,21,10,0.9742647058823529,,04-16-2015,16:01:09
12010,2,6,4,5,Recall,422,1,10,10,,4,4,23,31,21,10,0.9742647058823529,,04-16-2015,16:01:09
12010,2,6,4,6,Recall,332,1,5,5,,4,4,23,31,21,10,0.9742647058823529,,04-16-2015,16:01:09
12010,2,6,4,7,Recall,366,1,13,13,,4,4,23,31,21,10,0.9742647058823529,,04-16-2015,16:01:09
12010,2,6,4,8,Recall,391,1,11,11,,4,4,23,31,21,10,0.9742647058823529,,04-16-2015,16:01:09
12012,1,1,3,1,ProcessingTask,548,1,FALSE,FALSE,8,3,3,14,31,18,13,1,,03-12-2015,10:04:11
12012,1,1,3,2,ProcessingTask,1100,1,FALSE,FALSE,10,3,3,14,31,18,13,1,,03-12-2015,10:04:11
12012,1,1,3,3,ProcessingTask,578,1,TRUE,TRUE,11,3,3,14,31,18,13,1,,03-12-2015,10:04:11
12012,1,1,3,4,Recall,481,1,8,8,,3,3,14,31,18,13,1,,03-12-2015,10:04:11
12012,1,1,3,5,Recall,445,1,10,10,,3,3,14,31,18,13,1,,03-12-2015,10:04:11
12012,1,1,3,6,Recall,308,1,11,11,,3,3,14,31,18,13,1,,03-12-2015,10:04:11
12012,1,2,5,1,ProcessingTask,596,1,TRUE,TRUE,16,5,4,14,31,18,13,1,,03-12-2015,10:04:11
12012,1,2,5,2,ProcessingTask,540,1,FALSE,FALSE,1,5,4,14,31,18,13,1,,03-12-2015,10:04:11
12012,1,2,5,3,ProcessingTask,521,1,TRUE,TRUE,4,5,4,14,31,18,13,1,,03-12-2015,10:04:11
12012,1,2,5,4,ProcessingTask,525,1,TRUE,TRUE,8,5,4,14,31,18,13,1,,03-12-2015,10:04:11
12012,1,2,5,5,ProcessingTask,571,1,TRUE,TRUE,13,5,4,14,31,18,13,1,,03-12-2015,10:04:11
12012,1,2,5,6,Recall,1602,1,16,16,,5,4,14,31,18,13,1,,03-12-2015,10:04:11
12012,1,2,5,7,Recall,578,1,1,1,,5,4,14,31,18,13,1,,03-12-2015,10:04:11
12012,1,2,5,8,Recall,763,0,7,4,,5,4,14,31,18,13,1,,03-12-2015,10:04:11
12012,1,2,5,9,Recall,324,1,8,8,,5,4,14,31,18,13,1,,03-12-2015,10:04:11
12012,1,2,5,10,Recall,591,1,13,13,,5,4,14,31,18,13,1,,03-12-2015,10:04:11
12012,1,3,6,1,ProcessingTask,820,1,FALSE,FALSE,2,6,3,14,31,18,13,1,,03-12-2015,10:04:11
12012,1,3,6,2,ProcessingTask,468,1,FALSE,FALSE,5,6,3,14,31,18,13,1,,03-12-2015,10:04:11
12012,1,3,6,3,ProcessingTask,544,1,TRUE,TRUE,4,6,3,14,31,18,13,1,,03-12-2015,10:04:11
12012,1,3,6,4,ProcessingTask,470,1,FALSE,FALSE,6,6,3,14,31,18,13,1,,03-12-2015,10:04:11
12012,1,3,6,5,ProcessingTask,536,1,FALSE,FALSE,16,6,3,14,31,18,13,1,,03-12-2015,10:04:11
12012,1,3,6,6,ProcessingTask,513,1,FALSE,FALSE,13,6,3,14,31,18,13,1,,03-12-2015,10:04:11
12012,1,3,6,7,Recall,547,1,2,2,,6,3,14,31,18,13,1,,03-12-2015,10:04:11
12012,1,3,6,8,Recall,437,1,5,5,,6,3,14,31,18,13,1,,03-12-2015,10:04:11
12012,1,3,6,9,Recall,579,1,4,4,,6,3,14,31,18,13,1,,03-12-2015,10:04:11
12012,1,3,6,10,Recall,348,0,7,6,,6,3,14,31,18,13,1,,03-12-2015,10:04:11
12012,1,3,6,11,Recall,581,0,13,16,,6,3,14,31,18,13,1,,03-12-2015,10:04:11
12012,1,4,4,1,ProcessingTask,1614,1,TRUE,TRUE,9,4,4,14,31,18,13,1,,03-12-2015,10:04:11
12012,1,4,4,2,ProcessingTask,561,1,FALSE,FALSE,7,4,4,14,31,18,13,1,,03-12-2015,10:04:11
12012,1,4,4,3,ProcessingTask,536,1,FALSE,FALSE,8,4,4,14,31,18,13,1,,03-12-2015,10:04:11
12012,1,4,4,4,ProcessingTask,674,1,TRUE,TRUE,11,4,4,14,31,18,13,1,,03-12-2015,10:04:11
12012,1,4,4,5,Recall,630,1,9,9,,4,4,14,31,18,13,1,,03-12-2015,10:04:11
12012,1,4,4,6,Recall,548,1,7,7,,4,4,14,31,18,13,1,,03-12-2015,10:04:11
12012,1,4,4,7,Recall,254,1,8,8,,4,4,14,31,18,13,1,,03-12-2015,10:04:11
12012,1,4,4,8,Recall,339,1,11,11,,4,4,14,31,18,13,1,,03-12-2015,10:04:11
12012,1,5,2,1,ProcessingTask,583,1,TRUE,TRUE,8,2,2,14,31,18,13,1,,03-12-2015,10:04:11
12012,1,5,2,2,ProcessingTask,595,1,TRUE,TRUE,1,2,2,14,31,18,13,1,,03-12-2015,10:04:11
12012,1,5,2,3,Recall,841,1,8,8,,2,2,14,31,18,13,1,,03-12-2015,10:04:11
12012,1,5,2,4,Recall,408,1,1,1,,2,2,14,31,18,13,1,,03-12-2015,10:04:11
12012,1,6,7,1,ProcessingTask,580,1,TRUE,TRUE,9,7,2,14,31,18,13,1,,03-12-2015,10:04:11
12012,1,6,7,2,ProcessingTask,423,1,TRUE,TRUE,5,7,2,14,31,18,13,1,,03-12-2015,10:04:11
12012,1,6,7,3,ProcessingTask,620,1,FALSE,FALSE,11,7,2,14,31,18,13,1,,03-12-2015,10:04:11
12012,1,6,7,4,ProcessingTask,564,1,TRUE,TRUE,16,7,2,14,31,18,13,1,,03-12-2015,10:04:11
12012,1,6,7,5,ProcessingTask,636,1,TRUE,TRUE,14,7,2,14,31,18,13,1,,03-12-2015,10:04:11
12012,1,6,7,6,ProcessingTask,743,1,FALSE,FALSE,1,7,2,14,31,18,13,1,,03-12-2015,10:04:11
12012,1,6,7,7,ProcessingTask,743,1,TRUE,TRUE,2,7,2,14,31,18,13,1,,03-12-2015,10:04:11
12012,1,6,7,8,Recall,810,0,13,9,,7,2,14,31,18,13,1,,03-12-2015,10:04:11
12012,1,6,7,9,Recall,2466,1,5,5,,7,2,14,31,18,13,1,,03-12-2015,10:04:11
12012,1,6,7,10,Recall,511,0,7,11,,7,2,14,31,18,13,1,,03-12-2015,10:04:11
12012,1,6,7,11,Recall,707,1,16,16,,7,2,14,31,18,13,1,,03-12-2015,10:04:11
12012,1,6,7,12,Recall,1174,0,15,14,,7,2,14,31,18,13,1,,03-12-2015,10:04:11
12012,1,6,7,13,Recall,655,0,2,1,,7,2,14,31,18,13,1,,03-12-2015,10:04:11
12012,2,1,4,1,ProcessingTask,493,1,FALSE,FALSE,10,4,3,14,31,18,13,1,,03-12-2015,10:04:11
12012,2,1,4,2,ProcessingTask,647,1,FALSE,FALSE,13,4,3,14,31,18,13,1,,03-12-2015,10:04:11
12012,2,1,4,3,ProcessingTask,666,1,FALSE,FALSE,12,4,3,14,31,18,13,1,,03-12-2015,10:04:11
12012,2,1,4,4,ProcessingTask,557,1,TRUE,TRUE,9,4,3,14,31,18,13,1,,03-12-2015,10:04:11
12012,2,1,4,5,Recall,853,0,14,10,,4,3,14,31,18,13,1,,03-12-2015,10:04:11
12012,2,1,4,6,Recall,258,1,13,13,,4,3,14,31,18,13,1,,03-12-2015,10:04:11
12012,2,1,4,7,Recall,576,1,12,12,,4,3,14,31,18,13,1,,03-12-2015,10:04:11
12012,2,1,4,8,Recall,393,1,9,9,,4,3,14,31,18,13,1,,03-12-2015,10:04:11
12012,2,2,5,1,ProcessingTask,1450,1,FALSE,FALSE,15,5,3,14,31,18,13,1,,03-12-2015,10:04:11
12012,2,2,5,2,ProcessingTask,950,1,TRUE,TRUE,8,5,3,14,31,18,13,1,,03-12-2015,10:04:11
12012,2,2,5,3,ProcessingTask,826,1,TRUE,TRUE,14,5,3,14,31,18,13,1,,03-12-2015,10:04:11
12012,2,2,5,4,ProcessingTask,743,1,TRUE,TRUE,3,5,3,14,31,18,13,1,,03-12-2015,10:04:11
12012,2,2,5,5,ProcessingTask,743,1,FALSE,FALSE,16,5,3,14,31,18,13,1,,03-12-2015,10:04:11
12012,2,2,5,6,Recall,566,1,15,15,,5,3,14,31,18,13,1,,03-12-2015,10:04:11
12012,2,2,5,7,Recall,1990,0,14,8,,5,3,14,31,18,13,1,,03-12-2015,10:04:11
12012,2,2,5,8,Recall,983,0,12,14,,5,3,14,31,18,13,1,,03-12-2015,10:04:11
12012,2,2,5,9,Recall,1023,1,3,3,,5,3,14,31,18,13,1,,03-12-2015,10:04:11
12012,2,2,5,10,Recall,710,1,16,16,,5,3,14,31,18,13,1,,03-12-2015,10:04:11
12012,2,3,7,1,ProcessingTask,1139,1,FALSE,FALSE,4,7,1,14,31,18,13,1,,03-12-2015,10:04:11
12012,2,3,7,2,ProcessingTask,922,1,TRUE,TRUE,2,7,1,14,31,18,13,1,,03-12-2015,10:04:11
12012,2,3,7,3,ProcessingTask,881,1,TRUE,TRUE,5,7,1,14,31,18,13,1,,03-12-2015,10:04:11
12012,2,3,7,4,ProcessingTask,881,1,FALSE,FALSE,11,7,1,14,31,18,13,1,,03-12-2015,10:04:11
12012,2,3,7,5,ProcessingTask,771,1,TRUE,TRUE,1,7,1,14,31,18,13,1,,03-12-2015,10:04:11
12012,2,3,7,6,ProcessingTask,1070,1,FALSE,FALSE,6,7,1,14,31,18,13,1,,03-12-2015,10:04:11
12012,2,3,7,7,ProcessingTask,912,1,TRUE,TRUE,7,7,1,14,31,18,13,1,,03-12-2015,10:04:11
12012,2,3,7,8,Recall,809,0,7,4,,7,1,14,31,18,13,1,,03-12-2015,10:04:11
12012,2,3,7,9,Recall,337,0,6,2,,7,1,14,31,18,13,1,,03-12-2015,10:04:11
12012,2,3,7,10,Recall,1955,0,13,5,,7,1,14,31,18,13,1,,03-12-2015,10:04:11
12012,2,3,7,11,Recall,749,0,4,11,,7,1,14,31,18,13,1,,03-12-2015,10:04:11
12012,2,3,7,12,Recall,926,0,2,1,,7,1,14,31,18,13,1,,03-12-2015,10:04:11
12012,2,3,7,13,Recall,753,0,12,6,,7,1,14,31,18,13,1,,03-12-2015,10:04:11
12012,2,3,7,14,Recall,331,1,7,7,,7,1,14,31,18,13,1,,03-12-2015,10:04:11
12012,2,4,6,1,ProcessingTask,912,1,FALSE,FALSE,11,6,1,14,31,18,13,1,,03-12-2015,10:04:11
12012,2,4,6,2,ProcessingTask,1026,1,TRUE,TRUE,13,6,1,14,31,18,13,1,,03-12-2015,10:04:11
12012,2,4,6,3,ProcessingTask,767,1,FALSE,FALSE,9,6,1,14,31,18,13,1,,03-12-2015,10:04:11
12012,2,4,6,4,ProcessingTask,1081,1,TRUE,TRUE,15,6,1,14,31,18,13,1,,03-12-2015,10:04:11
12012,2,4,6,5,ProcessingTask,669,1,TRUE,TRUE,7,6,1,14,31,18,13,1,,03-12-2015,10:04:11
12012,2,4,6,6,ProcessingTask,871,1,TRUE,TRUE,8,6,1,14,31,18,13,1,,03-12-2015,10:04:11
12012,2,4,6,7,Recall,699,0,14,11,,6,1,14,31,18,13,1,,03-12-2015,10:04:11
12012,2,4,6,8,Recall,175,1,13,13,,6,1,14,31,18,13,1,,03-12-2015,10:04:11
12012,2,4,6,9,Recall,551,0,7,9,,6,1,14,31,18,13,1,,03-12-2015,10:04:11
12012,2,4,6,10,Recall,777,0,16,15,,6,1,14,31,18,13,1,,03-12-2015,10:04:11
12012,2,4,6,11,Recall,450,0,4,7,,6,1,14,31,18,13,1,,03-12-2015,10:04:11
12012,2,5,2,1,ProcessingTask,694,1,FALSE,FALSE,12,2,2,14,31,18,13,1,,03-12-2015,10:04:11
12012,2,5,2,2,ProcessingTask,573,1,TRUE,TRUE,1,2,2,14,31,18,13,1,,03-12-2015,10:04:11
12012,2,5,2,3,Recall,531,1,12,12,,2,2,14,31,18,13,1,,03-12-2015,10:04:11
12012,2,5,2,4,Recall,262,1,1,1,,2,2,14,31,18,13,1,,03-12-2015,10:04:11
12012,2,6,3,1,ProcessingTask,468,1,TRUE,TRUE,16,3,3,14,31,18,13,1,,03-12-2015,10:04:11
12012,2,6,3,2,ProcessingTask,600,1,FALSE,FALSE,3,3,3,14,31,18,13,1,,03-12-2015,10:04:11
12012,2,6,3,3,ProcessingTask,483,1,TRUE,TRUE,10,3,3,14,31,18,13,1,,03-12-2015,10:04:11
12012,2,6,3,4,Recall,589,1,16,16,,3,3,14,31,18,13,1,,03-12-2015,10:04:11
12012,2,6,3,5,Recall,565,1,3,3,,3,3,14,31,18,13,1,,03-12-2015,10:04:11
12012,2,6,3,6,Recall,438,1,10,10,,3,3,14,31,18,13,1,,03-12-2015,10:04:11
12013,1,1,6,1,ProcessingTask,993,1,FALSE,FALSE,10,6,0,21,36,12,24,0.9599236641221374,,03-25-2015,14:33:28
12013,1,1,6,2,ProcessingTask,626,1,TRUE,TRUE,16,6,0,21,36,12,24,0.9599236641221374,,03-25-2015,14:33:28
12013,1,1,6,3,ProcessingTask,915,1,TRUE,TRUE,15,6,0,21,36,12,24,0.9599236641221374,,03-25-2015,14:33:28
12013,1,1,6,4,ProcessingTask,882,1,TRUE,TRUE,13,6,0,21,36,12,24,0.9599236641221374,,03-25-2015,14:33:28
12013,1,1,6,5,ProcessingTask,445,1,FALSE,FALSE,6,6,0,21,36,12,24,0.9599236641221374,,03-25-2015,14:33:28
12013,1,1,6,6,ProcessingTask,707,1,FALSE,FALSE,2,6,0,21,36,12,24,0.9599236641221374,,03-25-2015,14:33:28
12013,1,1,6,7,Recall,566,0,6,10,,6,0,21,36,12,24,0.9599236641221374,,03-25-2015,14:33:28
12013,1,1,6,8,Recall,3375,0,12,16,,6,0,21,36,12,24,0.9599236641221374,,03-25-2015,14:33:28
12013,1,1,6,9,Recall,2529,0,14,15,,6,0,21,36,12,24,0.9599236641221374,,03-25-2015,14:33:28
12013,1,1,6,10,Recall,420,0,6,13,,6,0,21,36,12,24,0.9599236641221374,,03-25-2015,14:33:28
12013,1,2,5,1,ProcessingTask,851,1,TRUE,TRUE,4,5,5,21,36,12,24,0.9599236641221374,,03-25-2015,14:33:28
12013,1,2,5,2,ProcessingTask,702,1,FALSE,FALSE,8,5,5,21,36,12,24,0.9599236641221374,,03-25-2015,14:33:28
12013,1,2,5,3,ProcessingTask,1063,1,TRUE,TRUE,1,5,5,21,36,12,24,0.9599236641221374,,03-25-2015,14:33:28
12013,1,2,5,4,ProcessingTask,606,1,TRUE,TRUE,2,5,5,21,36,12,24,0.9599236641221374,,03-25-2015,14:33:28
12013,1,2,5,5,ProcessingTask,502,1,TRUE,TRUE,9,5,5,21,36,12,24,0.9599236641221374,,03-25-2015,14:33:28
12013,1,2,5,6,Recall,391,1,4,4,,5,5,21,36,12,24,0.9599236641221374,,03-25-2015,14:33:28
12013,1,2,5,7,Recall,223,1,8,8,,5,5,21,36,12,24,0.9599236641221374,,03-25-2015,14:33:28
12013,1,2,5,8,Recall,430,1,1,1,,5,5,21,36,12,24,0.9599236641221374,,03-25-2015,14:33:28
12013,1,2,5,9,Recall,188,1,2,2,,5,5,21,36,12,24,0.9599236641221374,,03-25-2015,14:33:28
12013,1,2,5,10,Recall,292,1,9,9,,5,5,21,36,12,24,0.9599236641221374,,03-25-2015,14:33:28
12013,1,3,4,1,ProcessingTask,700,1,FALSE,FALSE,9,3,2,21,36,12,24,0.9599236641221374,,03-25-2015,14:33:28
12013,1,3,4,2,ProcessingTask,914,1,FALSE,FALSE,11,3,2,21,36,12,24,0.9599236641221374,,03-25-2015,14:33:28
12013,1,3,4,3,ProcessingTask,509,0,TRUE,FALSE,1,3,2,21,36,12,24,0.9599236641221374,,03-25-2015,14:33:28
12013,1,3,4,4,ProcessingTask,544,1,TRUE,TRUE,3,3,2,21,36,12,24,0.9599236641221374,,03-25-2015,14:33:28
12013,1,3,4,5,Recall,336,0,11,9,,3,2,21,36,12,24,0.9599236641221374,,03-25-2015,14:33:28
12013,1,3,4,6,Recall,339,0,9,11,,3,2,21,36,12,24,0.9599236641221374,,03-25-2015,14:33:28
12013,1,3,4,7,Recall,557,1,1,1,,3,2,21,36,12,24,0.9599236641221374,,03-25-2015,14:33:28
12013,1,3,4,8,Recall,278,1,3,3,,3,2,21,36,12,24,0.9599236641221374,,03-25-2015,14:33:28
12013,1,4,3,1,ProcessingTask,611,1,TRUE,TRUE,4,3,2,21,36,12,24,0.9599236641221374,,03-25-2015,14:33:28
12013,1,4,3,2,ProcessingTask,898,1,FALSE,FALSE,5,3,2,21,36,12,24,0.9599236641221374,,03-25-2015,14:33:28
12013,1,4,3,3,ProcessingTask,1005,1,FALSE,FALSE,7,3,2,21,36,12,24,0.9599236641221374,,03-25-2015,14:33:28
12013,1,4,3,4,Recall,531,1,4,4,,3,2,21,36,12,24,0.9599236641221374,,03-25-2015,14:33:28
12013,1,4,3,5,Recall,390,0,9,5,,3,2,21,36,12,24,0.9599236641221374,,03-25-2015,14:33:28
12013,1,4,3,6,Recall,310,1,7,7,,3,2,21,36,12,24,0.9599236641221374,,03-25-2015,14:33:28
12013,1,5,7,1,ProcessingTask,767,1,TRUE,TRUE,12,6,1,21,36,12,24,0.9599236641221374,,03-25-2015,14:33:28
12013,1,5,7,2,ProcessingTask,523,1,FALSE,FALSE,7,6,1,21,36,12,24,0.9599236641221374,,03-25-2015,14:33:28
12013,1,5,7,3,ProcessingTask,833,1,FALSE,FALSE,4,6,1,21,36,12,24,0.9599236641221374,,03-25-2015,14:33:28
12013,1,5,7,4,ProcessingTask,332,1,FALSE,FALSE,1,6,1,21,36,12,24,0.9599236641221374,,03-25-2015,14:33:28
12013,1,5,7,5,ProcessingTask,627,0,TRUE,FALSE,15,6,1,21,36,12,24,0.9599236641221374,,03-25-2015,14:33:28
12013,1,5,7,6,ProcessingTask,570,1,TRUE,TRUE,16,6,1,21,36,12,24,0.9599236641221374,,03-25-2015,14:33:28
12013,1,5,7,7,ProcessingTask,1487,1,FALSE,FALSE,10,6,1,21,36,12,24,0.9599236641221374,,03-25-2015,14:33:28
12013,1,5,7,8,Recall,738,0,4,12,,6,1,21,36,12,24,0.9599236641221374,,03-25-2015,14:33:28
12013,1,5,7,9,Recall,573,0,8,7,,6,1,21,36,12,24,0.9599236641221374,,03-25-2015,14:33:28
12013,1,5,7,10,Recall,317,0,7,4,,6,1,21,36,12,24,0.9599236641221374,,03-25-2015,14:33:28
12013,1,5,7,11,Recall,320,1,1,1,,6,1,21,36,12,24,0.9599236641221374,,03-25-2015,14:33:28
12013,1,5,7,12,Recall,1563,0,12,15,,6,1,21,36,12,24,0.9599236641221374,,03-25-2015,14:33:28
12013,1,5,7,13,Recall,188,0,10,16,,6,1,21,36,12,24,0.9599236641221374,,03-25-2015,14:33:28
12013,1,6,2,1,ProcessingTask,1944,1,FALSE,FALSE,12,2,2,21,36,12,24,0.9599236641221374,,03-25-2015,14:33:28
12013,1,6,2,2,ProcessingTask,1879,1,TRUE,TRUE,9,2,2,21,36,12,24,0.9599236641221374,,03-25-2015,14:33:28
12013,1,6,2,3,Recall,714,1,12,12,,2,2,21,36,12,24,0.9599236641221374,,03-25-2015,14:33:28
12013,1,6,2,4,Recall,493,1,9,9,,2,2,21,36,12,24,0.9599236641221374,,03-25-2015,14:33:28
12013,2,1,6,1,ProcessingTask,1997,1,FALSE,FALSE,7,6,5,21,36,12,24,0.9599236641221374,,03-25-2015,14:33:28
12013,2,1,6,2,ProcessingTask,771,1,TRUE,TRUE,10,6,5,21,36,12,24,0.9599236641221374,,03-25-2015,14:33:28
12013,2,1,6,3,ProcessingTask,608,1,TRUE,TRUE,3,6,5,21,36,12,24,0.9599236641221374,,03-25-2015,14:33:28
12013,2,1,6,4,ProcessingTask,546,1,TRUE,TRUE,14,6,5,21,36,12,24,0.9599236641221374,,03-25-2015,14:33:28
12013,2,1,6,5,ProcessingTask,546,1,FALSE,FALSE,5,6,5,21,36,12,24,0.9599236641221374,,03-25-2015,14:33:28
12013,2,1,6,6,ProcessingTask,553,1,FALSE,FALSE,1,6,5,21,36,12,24,0.9599236641221374,,03-25-2015,14:33:28
12013,2,1,6,7,Recall,516,1,7,7,,6,5,21,36,12,24,0.9599236641221374,,03-25-2015,14:33:28
12013,2,1,6,8,Recall,231,1,10,10,,6,5,21,36,12,24,0.9599236641221374,,03-25-2015,14:33:28
12013,2,1,6,9,Recall,429,1,3,3,,6,5,21,36,12,24,0.9599236641221374,,03-25-2015,14:33:28
12013,2,1,6,10,Recall,644,1,14,14,,6,5,21,36,12,24,0.9599236641221374,,03-25-2015,14:33:28
12013,2,1,6,11,Recall,410,1,5,5,,6,5,21,36,12,24,0.9599236641221374,,03-25-2015,14:33:28
12013,2,2,3,1,ProcessingTask,1506,1,TRUE,TRUE,9,3,3,21,36,12,24,0.9599236641221374,,03-25-2015,14:33:28
12013,2,2,3,2,ProcessingTask,811,1,TRUE,TRUE,4,3,3,21,36,12,24,0.9599236641221374,,03-25-2015,14:33:28
12013,2,2,3,3,ProcessingTask,501,1,FALSE,FALSE,2,3,3,21,36,12,24,0.9599236641221374,,03-25-2015,14:33:28
12013,2,2,3,4,Recall,903,1,9,9,,3,3,21,36,12,24,0.9599236641221374,,03-25-2015,14:33:28
12013,2,2,3,5,Recall,443,1,4,4,,3,3,21,36,12,24,0.9599236641221374,,03-25-2015,14:33:28
12013,2,2,3,6,Recall,569,1,2,2,,3,3,21,36,12,24,0.9599236641221374,,03-25-2015,14:33:28
12013,2,3,2,1,ProcessingTask,838,1,TRUE,TRUE,6,2,2,21,36,12,24,0.9599236641221374,,03-25-2015,14:33:28
12013,2,3,2,2,ProcessingTask,560,1,FALSE,FALSE,16,2,2,21,36,12,24,0.9599236641221374,,03-25-2015,14:33:28
12013,2,3,2,3,Recall,680,1,6,6,,2,2,21,36,12,24,0.9599236641221374,,03-25-2015,14:33:28
12013,2,3,2,4,Recall,316,1,16,16,,2,2,21,36,12,24,0.9599236641221374,,03-25-2015,14:33:28
12013,2,4,7,1,ProcessingTask,907,1,TRUE,TRUE,12,7,5,21,36,12,24,0.9599236641221374,,03-25-2015,14:33:28
12013,2,4,7,2,ProcessingTask,1510,1,FALSE,FALSE,15,7,5,21,36,12,24,0.9599236641221374,,03-25-2015,14:33:28
12013,2,4,7,3,ProcessingTask,502,1,FALSE,FALSE,11,7,5,21,36,12,24,0.9599236641221374,,03-25-2015,14:33:28
12013,2,4,7,4,ProcessingTask,390,1,FALSE,FALSE,13,7,5,21,36,12,24,0.9599236641221374,,03-25-2015,14:33:28
12013,2,4,7,5,ProcessingTask,512,1,TRUE,TRUE,8,7,5,21,36,12,24,0.9599236641221374,,03-25-2015,14:33:28
12013,2,4,7,6,ProcessingTask,500,1,TRUE,TRUE,14,7,5,21,36,12,24,0.9599236641221374,,03-25-2015,14:33:28
12013,2,4,7,7,ProcessingTask,830,1,TRUE,TRUE,13,7,5,21,36,12,24,0.9599236641221374,,03-25-2015,14:33:28
12013,2,4,7,8,Recall,603,1,12,12,,7,5,21,36,12,24,0.9599236641221374,,03-25-2015,14:33:28
12013,2,4,7,9,Recall,994,1,15,15,,7,5,21,36,12,24,0.9599236641221374,,03-25-2015,14:33:28
12013,2,4,7,10,Recall,1347,1,11,11,,7,5,21,36,12,24,0.9599236641221374,,03-25-2015,14:33:28
12013,2,4,7,11,Recall,764,1,13,13,,7,5,21,36,12,24,0.9599236641221374,,03-25-2015,14:33:28
12013,2,4,7,12,Recall,5341,1,8,8,,7,5,21,36,12,24,0.9599236641221374,,03-25-2015,14:33:28
12013,2,4,7,13,Recall,545,0,13,14,,7,5,21,36,12,24,0.9599236641221374,,03-25-2015,14:33:28
12013,2,5,4,1,ProcessingTask,646,1,TRUE,TRUE,5,4,4,21,36,12,24,0.9599236641221374,,03-25-2015,14:33:28
12013,2,5,4,2,ProcessingTask,1474,1,FALSE,FALSE,11,4,4,21,36,12,24,0.9599236641221374,,03-25-2015,14:33:28
12013,2,5,4,3,ProcessingTask,789,1,TRUE,TRUE,6,4,4,21,36,12,24,0.9599236641221374,,03-25-2015,14:33:28
12013,2,5,4,4,ProcessingTask,563,1,TRUE,TRUE,3,4,4,21,36,12,24,0.9599236641221374,,03-25-2015,14:33:28
12013,2,5,4,5,Recall,482,1,5,5,,4,4,21,36,12,24,0.9599236641221374,,03-25-2015,14:33:28
12013,2,5,4,6,Recall,566,1,11,11,,4,4,21,36,12,24,0.9599236641221374,,03-25-2015,14:33:28
12013,2,5,4,7,Recall,303,1,6,6,,4,4,21,36,12,24,0.9599236641221374,,03-25-2015,14:33:28
12013,2,5,4,8,Recall,219,1,3,3,,4,4,21,36,12,24,0.9599236641221374,,03-25-2015,14:33:28
12013,2,6,5,1,ProcessingTask,971,1,TRUE,TRUE,12,5,5,21,36,12,24,0.9599236641221374,,03-25-2015,14:33:28
12013,2,6,5,2,ProcessingTask,600,1,TRUE,TRUE,16,5,5,21,36,12,24,0.9599236641221374,,03-25-2015,14:33:28
12013,2,6,5,3,ProcessingTask,195,1,FALSE,FALSE,1,5,5,21,36,12,24,0.9599236641221374,,03-25-2015,14:33:28
12013,2,6,5,4,ProcessingTask,1020,1,FALSE,FALSE,8,5,5,21,36,12,24,0.9599236641221374,,03-25-2015,14:33:28
12013,2,6,5,5,ProcessingTask,416,1,FALSE,FALSE,9,5,5,21,36,12,24,0.9599236641221374,,03-25-2015,14:33:28
12013,2,6,5,6,Recall,381,1,12,12,,5,5,21,36,12,24,0.9599236641221374,,03-25-2015,14:33:28
12013,2,6,5,7,Recall,326,1,16,16,,5,5,21,36,12,24,0.9599236641221374,,03-25-2015,14:33:28
12013,2,6,5,8,Recall,464,1,1,1,,5,5,21,36,12,24,0.9599236641221374,,03-25-2015,14:33:28
12013,2,6,5,9,Recall,333,1,8,8,,5,5,21,36,12,24,0.9599236641221374,,03-25-2015,14:33:28
12013,2,6,5,10,Recall,375,1,9,9,,5,5,21,36,12,24,0.9599236641221374,,03-25-2015,14:33:28
12014,1,1,3,1,ProcessingTask,1652,1,TRUE,TRUE,16,3,3,14,26,11,15,1,,03-02-2015,08:59:15
12014,1,1,3,2,ProcessingTask,862,1,FALSE,FALSE,5,3,3,14,26,11,15,1,,03-02-2015,08:59:15
12014,1,1,3,3,ProcessingTask,820,1,TRUE,TRUE,3,3,3,14,26,11,15,1,,03-02-2015,08:59:15
12014,1,1,3,4,Recall,920,1,16,16,,3,3,14,26,11,15,1,,03-02-2015,08:59:15
12014,1,1,3,5,Recall,947,1,5,5,,3,3,14,26,11,15,1,,03-02-2015,08:59:15
12014,1,1,3,6,Recall,589,1,3,3,,3,3,14,26,11,15,1,,03-02-2015,08:59:15
12014,1,2,5,1,ProcessingTask,1040,1,TRUE,TRUE,4,5,2,14,26,11,15,1,,03-02-2015,08:59:15
12014,1,2,5,2,ProcessingTask,860,1,TRUE,TRUE,1,5,2,14,26,11,15,1,,03-02-2015,08:59:15
12014,1,2,5,3,ProcessingTask,871,1,TRUE,TRUE,2,5,2,14,26,11,15,1,,03-02-2015,08:59:15
12014,1,2,5,4,ProcessingTask,832,1,FALSE,FALSE,15,5,2,14,26,11,15,1,,03-02-2015,08:59:15
12014,1,2,5,5,ProcessingTask,832,1,TRUE,TRUE,7,5,2,14,26,11,15,1,,03-02-2015,08:59:15
12014,1,2,5,6,Recall,4436,1,4,4,,5,2,14,26,11,15,1,,03-02-2015,08:59:15
12014,1,2,5,7,Recall,652,1,1,1,,5,2,14,26,11,15,1,,03-02-2015,08:59:15
12014,1,2,5,8,Recall,2553,0,blank,2,,5,2,14,26,11,15,1,,03-02-2015,08:59:15
12014,1,2,5,9,Recall,1043,0,7,15,,5,2,14,26,11,15,1,,03-02-2015,08:59:15
12014,1,3,2,1,ProcessingTask,897,1,TRUE,TRUE,3,2,2,14,26,11,15,1,,03-02-2015,08:59:15
12014,1,3,2,2,ProcessingTask,754,1,TRUE,TRUE,7,2,2,14,26,11,15,1,,03-02-2015,08:59:15
12014,1,3,2,3,Recall,874,1,3,3,,2,2,14,26,11,15,1,,03-02-2015,08:59:15
12014,1,3,2,4,Recall,455,1,7,7,,2,2,14,26,11,15,1,,03-02-2015,08:59:15
12014,1,4,6,1,ProcessingTask,761,1,FALSE,FALSE,16,6,0,14,26,11,15,1,,03-02-2015,08:59:15
12014,1,4,6,2,ProcessingTask,1485,1,TRUE,TRUE,1,6,0,14,26,11,15,1,,03-02-2015,08:59:15
12014,1,4,6,3,ProcessingTask,1210,1,FALSE,FALSE,2,6,0,14,26,11,15,1,,03-02-2015,08:59:15
12014,1,4,6,4,ProcessingTask,868,1,FALSE,FALSE,13,6,0,14,26,11,15,1,,03-02-2015,08:59:15
12014,1,4,6,5,ProcessingTask,648,1,FALSE,FALSE,3,6,0,14,26,11,15,1,,03-02-2015,08:59:15
12014,1,4,6,6,ProcessingTask,1066,1,TRUE,TRUE,11,6,0,14,26,11,15,1,,03-02-2015,08:59:15
12014,1,4,6,7,Recall,657,0,blank,16,,6,0,14,26,11,15,1,,03-02-2015,08:59:15
12014,1,4,6,8,Recall,207,0,blank,1,,6,0,14,26,11,15,1,,03-02-2015,08:59:15
12014,1,4,6,9,Recall,702,0,5,2,,6,0,14,26,11,15,1,,03-02-2015,08:59:15
12014,1,4,6,10,Recall,570,0,3,13,,6,0,14,26,11,15,1,,03-02-2015,08:59:15
12014,1,4,6,11,Recall,1011,0,11,3,,6,0,14,26,11,15,1,,03-02-2015,08:59:15
12014,1,5,4,1,ProcessingTask,953,1,FALSE,FALSE,3,4,4,14,26,11,15,1,,03-02-2015,08:59:15
12014,1,5,4,2,ProcessingTask,790,1,TRUE,TRUE,15,4,4,14,26,11,15,1,,03-02-2015,08:59:15
12014,1,5,4,3,ProcessingTask,837,1,TRUE,TRUE,4,4,4,14,26,11,15,1,,03-02-2015,08:59:15
12014,1,5,4,4,ProcessingTask,615,1,FALSE,FALSE,5,4,4,14,26,11,15,1,,03-02-2015,08:59:15
12014,1,5,4,5,Recall,1308,1,3,3,,4,4,14,26,11,15,1,,03-02-2015,08:59:15
12014,1,5,4,6,Recall,752,1,15,15,,4,4,14,26,11,15,1,,03-02-2015,08:59:15
12014,1,5,4,7,Recall,1177,1,4,4,,4,4,14,26,11,15,1,,03-02-2015,08:59:15
12014,1,5,4,8,Recall,794,1,5,5,,4,4,14,26,11,15,1,,03-02-2015,08:59:15
12014,1,6,7,1,ProcessingTask,2043,1,FALSE,FALSE,14,7,0,14,26,11,15,1,,03-02-2015,08:59:15
12014,1,6,7,2,ProcessingTask,1014,1,TRUE,TRUE,1,7,0,14,26,11,15,1,,03-02-2015,08:59:15
12014,1,6,7,3,ProcessingTask,1084,1,TRUE,TRUE,6,7,0,14,26,11,15,1,,03-02-2015,08:59:15
12014,1,6,7,4,ProcessingTask,693,1,TRUE,TRUE,16,7,0,14,26,11,15,1,,03-02-2015,08:59:15
12014,1,6,7,5,ProcessingTask,589,1,FALSE,FALSE,9,7,0,14,26,11,15,1,,03-02-2015,08:59:15
12014,1,6,7,6,ProcessingTask,1575,1,TRUE,TRUE,4,7,0,14,26,11,15,1,,03-02-2015,08:59:15
12014,1,6,7,7,ProcessingTask,1559,1,FALSE,FALSE,8,7,0,14,26,11,15,1,,03-02-2015,08:59:15
12014,1,6,7,8,Recall,702,0,3,14,,7,0,14,26,11,15,1,,03-02-2015,08:59:15
12014,1,6,7,9,Recall,825,0,16,1,,7,0,14,26,11,15,1,,03-02-2015,08:59:15
12014,1,6,7,10,Recall,2552,0,9,6,,7,0,14,26,11,15,1,,03-02-2015,08:59:15
12014,1,6,7,11,Recall,2186,0,1,16,,7,0,14,26,11,15,1,,03-02-2015,08:59:15
12014,1,6,7,12,Recall,6818,0,4,9,,7,0,14,26,11,15,1,,03-02-2015,08:59:15
12014,1,6,7,13,Recall,9275,0,14,4,,7,0,14,26,11,15,1,,03-02-2015,08:59:15
12014,2,1,2,1,ProcessingTask,2274,1,FALSE,FALSE,5,2,2,14,26,11,15,1,,03-02-2015,08:59:15
12014,2,1,2,2,ProcessingTask,937,1,TRUE,TRUE,4,2,2,14,26,11,15,1,,03-02-2015,08:59:15
12014,2,1,2,3,Recall,1241,1,5,5,,2,2,14,26,11,15,1,,03-02-2015,08:59:15
12014,2,1,2,4,Recall,720,1,4,4,,2,2,14,26,11,15,1,,03-02-2015,08:59:15
12014,2,2,6,1,ProcessingTask,1097,1,FALSE,FALSE,6,6,4,14,26,11,15,1,,03-02-2015,08:59:15
12014,2,2,6,2,ProcessingTask,1839,1,TRUE,TRUE,16,6,4,14,26,11,15,1,,03-02-2015,08:59:15
12014,2,2,6,3,ProcessingTask,1178,1,FALSE,FALSE,2,6,4,14,26,11,15,1,,03-02-2015,08:59:15
12014,2,2,6,4,ProcessingTask,1108,1,TRUE,TRUE,12,6,4,14,26,11,15,1,,03-02-2015,08:59:15
12014,2,2,6,5,ProcessingTask,1340,1,TRUE,TRUE,11,6,4,14,26,11,15,1,,03-02-2015,08:59:15
12014,2,2,6,6,ProcessingTask,612,1,FALSE,FALSE,10,6,4,14,26,11,15,1,,03-02-2015,08:59:15
12014,2,2,6,7,Recall,1330,1,6,6,,6,4,14,26,11,15,1,,03-02-2015,08:59:15
12014,2,2,6,8,Recall,773,1,16,16,,6,4,14,26,11,15,1,,03-02-2015,08:59:15
12014,2,2,6,9,Recall,1270,1,2,2,,6,4,14,26,11,15,1,,03-02-2015,08:59:15
12014,2,2,6,10,Recall,2914,1,12,12,,6,4,14,26,11,15,1,,03-02-2015,08:59:15
12014,2,2,6,11,Recall,9693,0,10,11,,6,4,14,26,11,15,1,,03-02-2015,08:59:15
12014,2,3,7,1,ProcessingTask,774,1,FALSE,FALSE,14,7,2,14,26,11,15,1,,03-02-2015,08:59:15
12014,2,3,7,2,ProcessingTask,572,1,FALSE,FALSE,9,7,2,14,26,11,15,1,,03-02-2015,08:59:15
12014,2,3,7,3,ProcessingTask,1083,1,TRUE,TRUE,13,7,2,14,26,11,15,1,,03-02-2015,08:59:15
12014,2,3,7,4,ProcessingTask,705,1,FALSE,FALSE,7,7,2,14,26,11,15,1,,03-02-2015,08:59:15
12014,2,3,7,5,ProcessingTask,1015,1,FALSE,FALSE,8,7,2,14,26,11,15,1,,03-02-2015,08:59:15
12014,2,3,7,6,ProcessingTask,1216,1,FALSE,FALSE,15,7,2,14,26,11,15,1,,03-02-2015,08:59:15
12014,2,3,7,7,ProcessingTask,694,1,TRUE,TRUE,3,7,2,14,26,11,15,1,,03-02-2015,08:59:15
12014,2,3,7,8,Recall,10151,1,14,14,,7,2,14,26,11,15,1,,03-02-2015,08:59:15
12014,2,3,7,9,Recall,732,1,9,9,,7,2,14,26,11,15,1,,03-02-2015,08:59:15
12014,2,4,5,1,ProcessingTask,379,1,FALSE,FALSE,1,5,2,14,26,11,15,1,,03-02-2015,08:59:15
12014,2,4,5,2,ProcessingTask,1699,1,TRUE,TRUE,9,5,2,14,26,11,15,1,,03-02-2015,08:59:15
12014,2,4,5,3,ProcessingTask,901,1,TRUE,TRUE,12,5,2,14,26,11,15,1,,03-02-2015,08:59:15
12014,2,4,5,4,ProcessingTask,1252,1,FALSE,FALSE,14,5,2,14,26,11,15,1,,03-02-2015,08:59:15
12014,2,4,5,5,ProcessingTask,741,1,TRUE,TRUE,4,5,2,14,26,11,15,1,,03-02-2015,08:59:15
12014,2,4,5,6,Recall,464,0,9,1,,5,2,14,26,11,15,1,,03-02-2015,08:59:15
12014,2,4,5,7,Recall,461,0,1,9,,5,2,14,26,11,15,1,,03-02-2015,08:59:15
12014,2,4,5,8,Recall,811,1,12,12,,5,2,14,26,11,15,1,,03-02-2015,08:59:15
12014,2,4,5,9,Recall,3234,0,blank,14,,5,2,14,26,11,15,1,,03-02-2015,08:59:15
12014,2,4,5,10,Recall,769,1,4,4,,5,2,14,26,11,15,1,,03-02-2015,08:59:15
12014,2,5,4,1,ProcessingTask,1109,1,FALSE,FALSE,13,4,2,14,26,11,15,1,,03-02-2015,08:59:15
12014,2,5,4,2,ProcessingTask,936,1,TRUE,TRUE,8,4,2,14,26,11,15,1,,03-02-2015,08:59:15
12014,2,5,4,3,ProcessingTask,707,1,FALSE,FALSE,15,4,2,14,26,11,15,1,,03-02-2015,08:59:15
12014,2,5,4,4,ProcessingTask,2014,1,FALSE,FALSE,7,4,2,14,26,11,15,1,,03-02-2015,08:59:15
12014,2,5,4,5,Recall,2259,1,13,13,,4,2,14,26,11,15,1,,03-02-2015,08:59:15
12014,2,5,4,6,Recall,4121,0,blank,8,,4,2,14,26,11,15,1,,03-02-2015,08:59:15
12014,2,5,4,7,Recall,197,0,blank,15,,4,2,14,26,11,15,1,,03-02-2015,08:59:15
12014,2,5,4,8,Recall,565,1,7,7,,4,2,14,26,11,15,1,,03-02-2015,08:59:15
12014,2,6,3,1,ProcessingTask,823,1,FALSE,FALSE,5,3,3,14,26,11,15,1,,03-02-2015,08:59:15
12014,2,6,3,2,ProcessingTask,749,1,FALSE,FALSE,3,3,3,14,26,11,15,1,,03-02-2015,08:59:15
12014,2,6,3,3,ProcessingTask,1397,1,TRUE,TRUE,16,3,3,14,26,11,15,1,,03-02-2015,08:59:15
12014,2,6,3,4,Recall,588,1,5,5,,3,3,14,26,11,15,1,,03-02-2015,08:59:15
12014,2,6,3,5,Recall,508,1,3,3,,3,3,14,26,11,15,1,,03-02-2015,08:59:15
12014,2,6,3,6,Recall,943,1,16,16,,3,3,14,26,11,15,1,,03-02-2015,08:59:15
12015,1,1,6,1,ProcessingTask,781,1,TRUE,TRUE,11,6,4,15,28,15,13,0.9786821705426356,,04-13-2015,11:55:55
12015,1,1,6,2,ProcessingTask,459,1,FALSE,FALSE,10,6,4,15,28,15,13,0.9786821705426356,,04-13-2015,11:55:55
12015,1,1,6,3,ProcessingTask,544,1,FALSE,FALSE,1,6,4,15,28,15,13,0.9786821705426356,,04-13-2015,11:55:55
12015,1,1,6,4,ProcessingTask,912,1,TRUE,TRUE,16,6,4,15,28,15,13,0.9786821705426356,,04-13-2015,11:55:55
12015,1,1,6,5,ProcessingTask,740,1,FALSE,FALSE,3,6,4,15,28,15,13,0.9786821705426356,,04-13-2015,11:55:55
12015,1,1,6,6,ProcessingTask,480,1,TRUE,TRUE,8,6,4,15,28,15,13,0.9786821705426356,,04-13-2015,11:55:55
12015,1,1,6,7,Recall,875,1,11,11,,6,4,15,28,15,13,0.9786821705426356,,04-13-2015,11:55:55
12015,1,1,6,8,Recall,272,1,10,10,,6,4,15,28,15,13,0.9786821705426356,,04-13-2015,11:55:55
12015,1,1,6,9,Recall,477,1,1,1,,6,4,15,28,15,13,0.9786821705426356,,04-13-2015,11:55:55
12015,1,1,6,10,Recall,818,1,16,16,,6,4,15,28,15,13,0.9786821705426356,,04-13-2015,11:55:55
12015,1,1,6,11,Recall,409,0,8,3,,6,4,15,28,15,13,0.9786821705426356,,04-13-2015,11:55:55
12015,1,2,5,1,ProcessingTask,654,1,TRUE,TRUE,4,5,5,15,28,15,13,0.9786821705426356,,04-13-2015,11:55:55
12015,1,2,5,2,ProcessingTask,749,1,FALSE,FALSE,13,5,5,15,28,15,13,0.9786821705426356,,04-13-2015,11:55:55
12015,1,2,5,3,ProcessingTask,720,1,FALSE,FALSE,12,5,5,15,28,15,13,0.9786821705426356,,04-13-2015,11:55:55
12015,1,2,5,4,ProcessingTask,601,1,FALSE,FALSE,3,5,5,15,28,15,13,0.9786821705426356,,04-13-2015,11:55:55
12015,1,2,5,5,ProcessingTask,768,1,FALSE,FALSE,11,5,5,15,28,15,13,0.9786821705426356,,04-13-2015,11:55:55
12015,1,2,5,6,Recall,599,1,4,4,,5,5,15,28,15,13,0.9786821705426356,,04-13-2015,11:55:55
12015,1,2,5,7,Recall,463,1,13,13,,5,5,15,28,15,13,0.9786821705426356,,04-13-2015,11:55:55
12015,1,2,5,8,Recall,348,1,12,12,,5,5,15,28,15,13,0.9786821705426356,,04-13-2015,11:55:55
12015,1,2,5,9,Recall,374,1,3,3,,5,5,15,28,15,13,0.9786821705426356,,04-13-2015,11:55:55
12015,1,2,5,10,Recall,695,1,11,11,,5,5,15,28,15,13,0.9786821705426356,,04-13-2015,11:55:55
12015,1,3,2,1,ProcessingTask,785,1,FALSE,FALSE,13,2,1,15,28,15,13,0.9786821705426356,,04-13-2015,11:55:55
12015,1,3,2,2,ProcessingTask,533,1,TRUE,TRUE,15,2,1,15,28,15,13,0.9786821705426356,,04-13-2015,11:55:55
12015,1,3,2,3,Recall,709,0,14,13,,2,1,15,28,15,13,0.9786821705426356,,04-13-2015,11:55:55
12015,1,3,2,4,Recall,265,1,15,15,,2,1,15,28,15,13,0.9786821705426356,,04-13-2015,11:55:55
12015,1,4,7,1,ProcessingTask,644,1,TRUE,TRUE,2,7,0,15,28,15,13,0.9786821705426356,,04-13-2015,11:55:55
12015,1,4,7,2,ProcessingTask,645,1,TRUE,TRUE,5,7,0,15,28,15,13,0.9786821705426356,,04-13-2015,11:55:55
12015,1,4,7,3,ProcessingTask,1422,1,TRUE,TRUE,12,7,0,15,28,15,13,0.9786821705426356,,04-13-2015,11:55:55
12015,1,4,7,4,ProcessingTask,540,1,TRUE,TRUE,9,7,0,15,28,15,13,0.9786821705426356,,04-13-2015,11:55:55
12015,1,4,7,5,ProcessingTask,583,1,FALSE,FALSE,4,7,0,15,28,15,13,0.9786821705426356,,04-13-2015,11:55:55
12015,1,4,7,6,ProcessingTask,543,1,TRUE,TRUE,6,7,0,15,28,15,13,0.9786821705426356,,04-13-2015,11:55:55
12015,1,4,7,7,ProcessingTask,453,1,TRUE,TRUE,13,7,0,15,28,15,13,0.9786821705426356,,04-13-2015,11:55:55
12015,1,4,7,8,Recall,511,0,10,2,,7,0,15,28,15,13,0.9786821705426356,,04-13-2015,11:55:55
12015,1,4,7,9,Recall,507,0,3,5,,7,0,15,28,15,13,0.9786821705426356,,04-13-2015,11:55:55
12015,1,4,7,10,Recall,358,0,5,12,,7,0,15,28,15,13,0.9786821705426356,,04-13-2015,11:55:55
12015,1,4,7,11,Recall,528,0,8,9,,7,0,15,28,15,13,0.9786821705426356,,04-13-2015,11:55:55
12015,1,4,7,12,Recall,467,0,14,4,,7,0,15,28,15,13,0.9786821705426356,,04-13-2015,11:55:55
12015,1,5,4,1,ProcessingTask,561,1,FALSE,FALSE,3,4,3,15,28,15,13,0.9786821705426356,,04-13-2015,11:55:55
12015,1,5,4,2,ProcessingTask,472,1,TRUE,TRUE,11,4,3,15,28,15,13,0.9786821705426356,,04-13-2015,11:55:55
12015,1,5,4,3,ProcessingTask,599,1,FALSE,FALSE,8,4,3,15,28,15,13,0.9786821705426356,,04-13-2015,11:55:55
12015,1,5,4,4,ProcessingTask,241,1,TRUE,TRUE,14,4,3,15,28,15,13,0.9786821705426356,,04-13-2015,11:55:55
12015,1,5,4,5,Recall,733,1,3,3,,4,3,15,28,15,13,0.9786821705426356,,04-13-2015,11:55:55
12015,1,5,4,6,Recall,447,1,11,11,,4,3,15,28,15,13,0.9786821705426356,,04-13-2015,11:55:55
12015,1,5,4,7,Recall,293,1,8,8,,4,3,15,28,15,13,0.9786821705426356,,04-13-2015,11:55:55
12015,1,5,4,8,Recall,353,0,10,14,,4,3,15,28,15,13,0.9786821705426356,,04-13-2015,11:55:55
12015,1,6,3,1,ProcessingTask,269,1,TRUE,TRUE,14,3,2,15,28,15,13,0.9786821705426356,,04-13-2015,11:55:55
12015,1,6,3,2,ProcessingTask,386,1,FALSE,FALSE,8,3,2,15,28,15,13,0.9786821705426356,,04-13-2015,11:55:55
12015,1,6,3,3,ProcessingTask,650,1,FALSE,FALSE,16,3,2,15,28,15,13,0.9786821705426356,,04-13-2015,11:55:55
12015,1,6,3,4,Recall,894,0,10,14,,3,2,15,28,15,13,0.9786821705426356,,04-13-2015,11:55:55
12015,1,6,3,5,Recall,362,1,8,8,,3,2,15,28,15,13,0.9786821705426356,,04-13-2015,11:55:55
12015,1,6,3,6,Recall,387,1,16,16,,3,2,15,28,15,13,0.9786821705426356,,04-13-2015,11:55:55
12015,2,1,5,1,ProcessingTask,479,1,FALSE,FALSE,6,5,5,15,28,15,13,0.9786821705426356,,04-13-2015,11:55:55
12015,2,1,5,2,ProcessingTask,612,1,FALSE,FALSE,1,5,5,15,28,15,13,0.9786821705426356,,04-13-2015,11:55:55
12015,2,1,5,3,ProcessingTask,482,1,FALSE,FALSE,15,5,5,15,28,15,13,0.9786821705426356,,04-13-2015,11:55:55
12015,2,1,5,4,ProcessingTask,803,1,TRUE,TRUE,14,5,5,15,28,15,13,0.9786821705426356,,04-13-2015,11:55:55
12015,2,1,5,5,ProcessingTask,666,1,FALSE,FALSE,16,5,5,15,28,15,13,0.9786821705426356,,04-13-2015,11:55:55
12015,2,1,5,6,Recall,898,1,6,6,,5,5,15,28,15,13,0.9786821705426356,,04-13-2015,11:55:55
12015,2,1,5,7,Recall,422,1,1,1,,5,5,15,28,15,13,0.9786821705426356,,04-13-2015,11:55:55
12015,2,1,5,8,Recall,437,1,15,15,,5,5,15,28,15,13,0.9786821705426356,,04-13-2015,11:55:55
12015,2,1,5,9,Recall,259,1,14,14,,5,5,15,28,15,13,0.9786821705426356,,04-13-2015,11:55:55
12015,2,1,5,10,Recall,296,1,16,16,,5,5,15,28,15,13,0.9786821705426356,,04-13-2015,11:55:55
12015,2,2,2,1,ProcessingTask,524,1,FALSE,FALSE,3,2,2,15,28,15,13,0.9786821705426356,,04-13-2015,11:55:55
12015,2,2,2,2,ProcessingTask,1121,1,TRUE,TRUE,7,2,2,15,28,15,13,0.9786821705426356,,04-13-2015,11:55:55
12015,2,2,2,3,Recall,770,1,3,3,,2,2,15,28,15,13,0.9786821705426356,,04-13-2015,11:55:55
12015,2,2,2,4,Recall,235,1,7,7,,2,2,15,28,15,13,0.9786821705426356,,04-13-2015,11:55:55
12015,2,3,6,1,ProcessingTask,512,1,FALSE,FALSE,8,5,1,15,28,15,13,0.9786821705426356,,04-13-2015,11:55:55
12015,2,3,6,2,ProcessingTask,645,1,FALSE,FALSE,10,5,1,15,28,15,13,0.9786821705426356,,04-13-2015,11:55:55
12015,2,3,6,3,ProcessingTask,562,0,FALSE,TRUE,5,5,1,15,28,15,13,0.9786821705426356,,04-13-2015,11:55:55
12015,2,3,6,4,ProcessingTask,650,1,TRUE,TRUE,11,5,1,15,28,15,13,0.9786821705426356,,04-13-2015,11:55:55
12015,2,3,6,5,ProcessingTask,1097,1,TRUE,TRUE,2,5,1,15,28,15,13,0.9786821705426356,,04-13-2015,11:55:55
12015,2,3,6,6,ProcessingTask,561,1,FALSE,FALSE,12,5,1,15,28,15,13,0.9786821705426356,,04-13-2015,11:55:55
12015,2,3,6,7,Recall,576,1,8,8,,5,1,15,28,15,13,0.9786821705426356,,04-13-2015,11:55:55
12015,2,3,6,8,Recall,273,0,7,10,,5,1,15,28,15,13,0.9786821705426356,,04-13-2015,11:55:55
12015,2,3,6,9,Recall,1350,0,11,5,,5,1,15,28,15,13,0.9786821705426356,,04-13-2015,11:55:55
12015,2,3,6,10,Recall,328,0,2,11,,5,1,15,28,15,13,0.9786821705426356,,04-13-2015,11:55:55
12015,2,3,6,11,Recall,322,0,12,2,,5,1,15,28,15,13,0.9786821705426356,,04-13-2015,11:55:55
12015,2,4,3,1,ProcessingTask,566,1,FALSE,FALSE,4,3,3,15,28,15,13,0.9786821705426356,,04-13-2015,11:55:55
12015,2,4,3,2,ProcessingTask,787,1,TRUE,TRUE,9,3,3,15,28,15,13,0.9786821705426356,,04-13-2015,11:55:55
12015,2,4,3,3,ProcessingTask,627,1,FALSE,FALSE,13,3,3,15,28,15,13,0.9786821705426356,,04-13-2015,11:55:55
12015,2,4,3,4,Recall,1759,1,4,4,,3,3,15,28,15,13,0.9786821705426356,,04-13-2015,11:55:55
12015,2,4,3,5,Recall,1793,1,9,9,,3,3,15,28,15,13,0.9786821705426356,,04-13-2015,11:55:55
12015,2,4,3,6,Recall,417,1,13,13,,3,3,15,28,15,13,0.9786821705426356,,04-13-2015,11:55:55
12015,2,5,7,1,ProcessingTask,708,1,FALSE,FALSE,9,7,0,15,28,15,13,0.9786821705426356,,04-13-2015,11:55:55
12015,2,5,7,2,ProcessingTask,1013,1,TRUE,TRUE,10,7,0,15,28,15,13,0.9786821705426356,,04-13-2015,11:55:55
12015,2,5,7,3,ProcessingTask,1273,1,TRUE,TRUE,12,7,0,15,28,15,13,0.9786821705426356,,04-13-2015,11:55:55
12015,2,5,7,4,ProcessingTask,541,1,TRUE,TRUE,13,7,0,15,28,15,13,0.9786821705426356,,04-13-2015,11:55:55
12015,2,5,7,5,ProcessingTask,587,1,FALSE,FALSE,6,7,0,15,28,15,13,0.9786821705426356,,04-13-2015,11:55:55
12015,2,5,7,6,ProcessingTask,547,1,TRUE,TRUE,7,7,0,15,28,15,13,0.9786821705426356,,04-13-2015,11:55:55
12015,2,5,7,7,ProcessingTask,723,1,TRUE,TRUE,3,7,0,15,28,15,13,0.9786821705426356,,04-13-2015,11:55:55
12015,2,5,7,8,Recall,603,0,13,9,,7,0,15,28,15,13,0.9786821705426356,,04-13-2015,11:55:55
12015,2,5,7,9,Recall,499,0,9,10,,7,0,15,28,15,13,0.9786821705426356,,04-13-2015,11:55:55
12015,2,5,7,10,Recall,382,0,8,12,,7,0,15,28,15,13,0.9786821705426356,,04-13-2015,11:55:55
12015,2,5,7,11,Recall,286,0,6,13,,7,0,15,28,15,13,0.9786821705426356,,04-13-2015,11:55:55
12015,2,5,7,12,Recall,282,0,3,6,,7,0,15,28,15,13,0.9786821705426356,,04-13-2015,11:55:55
12015,2,6,4,1,ProcessingTask,560,1,TRUE,TRUE,4,4,2,15,28,15,13,0.9786821705426356,,04-13-2015,11:55:55
12015,2,6,4,2,ProcessingTask,577,1,TRUE,TRUE,11,4,2,15,28,15,13,0.9786821705426356,,04-13-2015,11:55:55
12015,2,6,4,3,ProcessingTask,681,1,FALSE,FALSE,2,4,2,15,28,15,13,0.9786821705426356,,04-13-2015,11:55:55
12015,2,6,4,4,ProcessingTask,562,1,FALSE,FALSE,16,4,2,15,28,15,13,0.9786821705426356,,04-13-2015,11:55:55
12015,2,6,4,5,Recall,657,0,3,4,,4,2,15,28,15,13,0.9786821705426356,,04-13-2015,11:55:55
12015,2,6,4,6,Recall,327,1,11,11,,4,2,15,28,15,13,0.9786821705426356,,04-13-2015,11:55:55
12015,2,6,4,7,Recall,346,1,2,2,,4,2,15,28,15,13,0.9786821705426356,,04-13-2015,11:55:55
12015,2,6,4,8,Recall,1763,0,12,16,,4,2,15,28,15,13,0.9786821705426356,,04-13-2015,11:55:55
12016,1,1,4,1,ProcessingTask,803,1,FALSE,FALSE,15,4,4,8,17,10,7,0.9032846715328468,,02-24-2015,14:03:43
12016,1,1,4,2,ProcessingTask,576,1,FALSE,FALSE,1,4,4,8,17,10,7,0.9032846715328468,,02-24-2015,14:03:43
12016,1,1,4,3,ProcessingTask,707,1,TRUE,TRUE,12,4,4,8,17,10,7,0.9032846715328468,,02-24-2015,14:03:43
12016,1,1,4,4,ProcessingTask,707,1,FALSE,FALSE,10,4,4,8,17,10,7,0.9032846715328468,,02-24-2015,14:03:43
12016,1,1,4,5,Recall,1314,1,15,15,,4,4,8,17,10,7,0.9032846715328468,,02-24-2015,14:03:43
12016,1,1,4,6,Recall,614,1,1,1,,4,4,8,17,10,7,0.9032846715328468,,02-24-2015,14:03:43
12016,1,1,4,7,Recall,676,1,12,12,,4,4,8,17,10,7,0.9032846715328468,,02-24-2015,14:03:43
12016,1,1,4,8,Recall,545,1,10,10,,4,4,8,17,10,7,0.9032846715328468,,02-24-2015,14:03:43
12016,1,2,7,1,ProcessingTask,635,1,TRUE,TRUE,8,7,1,8,17,10,7,0.9032846715328468,,02-24-2015,14:03:43
12016,1,2,7,2,ProcessingTask,746,1,FALSE,FALSE,13,7,1,8,17,10,7,0.9032846715328468,,02-24-2015,14:03:43
12016,1,2,7,3,ProcessingTask,552,1,FALSE,FALSE,2,7,1,8,17,10,7,0.9032846715328468,,02-24-2015,14:03:43
12016,1,2,7,4,ProcessingTask,684,1,TRUE,TRUE,1,7,1,8,17,10,7,0.9032846715328468,,02-24-2015,14:03:43
12016,1,2,7,5,ProcessingTask,706,1,TRUE,TRUE,10,7,1,8,17,10,7,0.9032846715328468,,02-24-2015,14:03:43
12016,1,2,7,6,ProcessingTask,649,1,FALSE,FALSE,12,7,1,8,17,10,7,0.9032846715328468,,02-24-2015,14:03:43
12016,1,2,7,7,ProcessingTask,615,1,TRUE,TRUE,15,7,1,8,17,10,7,0.9032846715328468,,02-24-2015,14:03:43
12016,1,2,7,8,Recall,4139,0,15,8,,7,1,8,17,10,7,0.9032846715328468,,02-24-2015,14:03:43
12016,1,2,7,9,Recall,5774,0,1,13,,7,1,8,17,10,7,0.9032846715328468,,02-24-2015,14:03:43
12016,1,2,7,10,Recall,1049,0,12,2,,7,1,8,17,10,7,0.9032846715328468,,02-24-2015,14:03:43
12016,1,2,7,11,Recall,2399,0,9,1,,7,1,8,17,10,7,0.9032846715328468,,02-24-2015,14:03:43
12016,1,2,7,12,Recall,959,0,12,10,,7,1,8,17,10,7,0.9032846715328468,,02-24-2015,14:03:43
12016,1,2,7,13,Recall,1976,1,12,12,,7,1,8,17,10,7,0.9032846715328468,,02-24-2015,14:03:43
12016,1,2,7,14,Recall,370,0,12,15,,7,1,8,17,10,7,0.9032846715328468,,02-24-2015,14:03:43
12016,1,3,3,1,ProcessingTask,585,1,FALSE,FALSE,5,3,1,8,17,10,7,0.9032846715328468,,02-24-2015,14:03:43
12016,1,3,3,2,ProcessingTask,598,1,TRUE,TRUE,6,3,1,8,17,10,7,0.9032846715328468,,02-24-2015,14:03:43
12016,1,3,3,3,ProcessingTask,979,1,FALSE,FALSE,12,3,1,8,17,10,7,0.9032846715328468,,02-24-2015,14:03:43
12016,1,3,3,4,Recall,1658,0,15,5,,3,1,8,17,10,7,0.9032846715328468,,02-24-2015,14:03:43
12016,1,3,3,5,Recall,1112,0,9,6,,3,1,8,17,10,7,0.9032846715328468,,02-24-2015,14:03:43
12016,1,3,3,6,Recall,452,1,12,12,,3,1,8,17,10,7,0.9032846715328468,,02-24-2015,14:03:43
12016,1,4,5,1,ProcessingTask,549,1,FALSE,FALSE,2,4,1,8,17,10,7,0.9032846715328468,,02-24-2015,14:03:43
12016,1,4,5,2,ProcessingTask,700,1,TRUE,TRUE,15,4,1,8,17,10,7,0.9032846715328468,,02-24-2015,14:03:43
12016,1,4,5,3,ProcessingTask,1113,0,FALSE,TRUE,14,4,1,8,17,10,7,0.9032846715328468,,02-24-2015,14:03:43
12016,1,4,5,4,ProcessingTask,517,1,FALSE,FALSE,12,4,1,8,17,10,7,0.9032846715328468,,02-24-2015,14:03:43
12016,1,4,5,5,ProcessingTask,504,1,FALSE,FALSE,7,4,1,8,17,10,7,0.9032846715328468,,02-24-2015,14:03:43
12016,1,4,5,6,Recall,1113,0,14,2,,4,1,8,17,10,7,0.9032846715328468,,02-24-2015,14:03:43
12016,1,4,5,7,Recall,588,0,5,15,,4,1,8,17,10,7,0.9032846715328468,,02-24-2015,14:03:43
12016,1,4,5,8,Recall,1445,0,12,14,,4,1,8,17,10,7,0.9032846715328468,,02-24-2015,14:03:43
12016,1,4,5,9,Recall,491,0,14,12,,4,1,8,17,10,7,0.9032846715328468,,02-24-2015,14:03:43
12016,1,4,5,10,Recall,631,1,7,7,,4,1,8,17,10,7,0.9032846715328468,,02-24-2015,14:03:43
12016,1,5,6,1,ProcessingTask,518,1,TRUE,TRUE,13,5,1,8,17,10,7,0.9032846715328468,,02-24-2015,14:03:43
12016,1,5,6,2,ProcessingTask,576,1,TRUE,TRUE,5,5,1,8,17,10,7,0.9032846715328468,,02-24-2015,14:03:43
12016,1,5,6,3,ProcessingTask,632,1,FALSE,FALSE,15,5,1,8,17,10,7,0.9032846715328468,,02-24-2015,14:03:43
12016,1,5,6,4,ProcessingTask,549,1,TRUE,TRUE,7,5,1,8,17,10,7,0.9032846715328468,,02-24-2015,14:03:43
12016,1,5,6,5,ProcessingTask,464,1,FALSE,FALSE,10,5,1,8,17,10,7,0.9032846715328468,,02-24-2015,14:03:43
12016,1,5,6,6,ProcessingTask,931,0,TRUE,FALSE,8,5,1,8,17,10,7,0.9032846715328468,,02-24-2015,14:03:43
12016,1,5,6,7,Recall,1804,0,14,13,,5,1,8,17,10,7,0.9032846715328468,,02-24-2015,14:03:43
12016,1,5,6,8,Recall,572,1,5,5,,5,1,8,17,10,7,0.9032846715328468,,02-24-2015,14:03:43
12016,1,5,6,9,Recall,1596,0,12,15,,5,1,8,17,10,7,0.9032846715328468,,02-24-2015,14:03:43
12016,1,5,6,10,Recall,516,0,14,7,,5,1,8,17,10,7,0.9032846715328468,,02-24-2015,14:03:43
12016,1,5,6,11,Recall,391,0,7,10,,5,1,8,17,10,7,0.9032846715328468,,02-24-2015,14:03:43
12016,1,6,2,1,ProcessingTask,766,1,TRUE,TRUE,10,2,2,8,17,10,7,0.9032846715328468,,02-24-2015,14:03:43
12016,1,6,2,2,ProcessingTask,691,1,TRUE,TRUE,3,2,2,8,17,10,7,0.9032846715328468,,02-24-2015,14:03:43
12016,1,6,2,3,Recall,702,1,10,10,,2,2,8,17,10,7,0.9032846715328468,,02-24-2015,14:03:43
12016,1,6,2,4,Recall,617,1,3,3,,2,2,8,17,10,7,0.9032846715328468,,02-24-2015,14:03:43
12016,2,1,3,1,ProcessingTask,619,1,FALSE,FALSE,14,3,2,8,17,10,7,0.9032846715328468,,02-24-2015,14:03:43
12016,2,1,3,2,ProcessingTask,772,1,TRUE,TRUE,7,3,2,8,17,10,7,0.9032846715328468,,02-24-2015,14:03:43
12016,2,1,3,3,ProcessingTask,477,1,TRUE,TRUE,4,3,2,8,17,10,7,0.9032846715328468,,02-24-2015,14:03:43
12016,2,1,3,4,Recall,367,0,10,14,,3,2,8,17,10,7,0.9032846715328468,,02-24-2015,14:03:43
12016,2,1,3,5,Recall,376,1,7,7,,3,2,8,17,10,7,0.9032846715328468,,02-24-2015,14:03:43
12016,2,1,3,6,Recall,361,1,4,4,,3,2,8,17,10,7,0.9032846715328468,,02-24-2015,14:03:43
12016,2,2,6,1,ProcessingTask,502,1,FALSE,FALSE,1,5,0,8,17,10,7,0.9032846715328468,,02-24-2015,14:03:43
12016,2,2,6,2,ProcessingTask,718,1,TRUE,TRUE,10,5,0,8,17,10,7,0.9032846715328468,,02-24-2015,14:03:43
12016,2,2,6,3,ProcessingTask,503,1,TRUE,TRUE,3,5,0,8,17,10,7,0.9032846715328468,,02-24-2015,14:03:43
12016,2,2,6,4,ProcessingTask,425,0,TRUE,FALSE,15,5,0,8,17,10,7,0.9032846715328468,,02-24-2015,14:03:43
12016,2,2,6,5,ProcessingTask,1241,1,FALSE,FALSE,16,5,0,8,17,10,7,0.9032846715328468,,02-24-2015,14:03:43
12016,2,2,6,6,ProcessingTask,285,1,FALSE,FALSE,8,5,0,8,17,10,7,0.9032846715328468,,02-24-2015,14:03:43
12016,2,2,6,7,Recall,1519,0,10,1,,5,0,8,17,10,7,0.9032846715328468,,02-24-2015,14:03:43
12016,2,2,6,8,Recall,690,0,1,10,,5,0,8,17,10,7,0.9032846715328468,,02-24-2015,14:03:43
12016,2,2,6,9,Recall,1918,0,15,3,,5,0,8,17,10,7,0.9032846715328468,,02-24-2015,14:03:43
12016,2,2,6,10,Recall,498,0,8,15,,5,0,8,17,10,7,0.9032846715328468,,02-24-2015,14:03:43
12016,2,3,5,1,ProcessingTask,592,1,TRUE,TRUE,11,5,1,8,17,10,7,0.9032846715328468,,02-24-2015,14:03:43
12016,2,3,5,2,ProcessingTask,534,1,FALSE,FALSE,5,5,1,8,17,10,7,0.9032846715328468,,02-24-2015,14:03:43
12016,2,3,5,3,ProcessingTask,626,1,FALSE,FALSE,6,5,1,8,17,10,7,0.9032846715328468,,02-24-2015,14:03:43
12016,2,3,5,4,ProcessingTask,482,1,TRUE,TRUE,9,5,1,8,17,10,7,0.9032846715328468,,02-24-2015,14:03:43
12016,2,3,5,5,ProcessingTask,598,1,TRUE,TRUE,13,5,1,8,17,10,7,0.9032846715328468,,02-24-2015,14:03:43
12016,2,3,5,6,Recall,5644,0,10,11,,5,1,8,17,10,7,0.9032846715328468,,02-24-2015,14:03:43
12016,2,3,5,7,Recall,2124,0,1,5,,5,1,8,17,10,7,0.9032846715328468,,02-24-2015,14:03:43
12016,2,3,5,8,Recall,823,0,7,6,,5,1,8,17,10,7,0.9032846715328468,,02-24-2015,14:03:43
12016,2,3,5,9,Recall,470,0,5,9,,5,1,8,17,10,7,0.9032846715328468,,02-24-2015,14:03:43
12016,2,3,5,10,Recall,427,1,13,13,,5,1,8,17,10,7,0.9032846715328468,,02-24-2015,14:03:43
12016,2,3,5,11,Recall,154,,13,,,5,1,8,17,10,7,0.9032846715328468,,02-24-2015,14:03:43
12016,2,3,5,12,Recall,290,,13,,,5,1,8,17,10,7,0.9032846715328468,,02-24-2015,14:03:43
12016,2,4,7,1,ProcessingTask,918,1,TRUE,TRUE,2,6,0,8,17,10,7,0.9032846715328468,,02-24-2015,14:03:43
12016,2,4,7,2,ProcessingTask,529,1,TRUE,TRUE,12,6,0,8,17,10,7,0.9032846715328468,,02-24-2015,14:03:43
12016,2,4,7,3,ProcessingTask,482,1,FALSE,FALSE,15,6,0,8,17,10,7,0.9032846715328468,,02-24-2015,14:03:43
12016,2,4,7,4,ProcessingTask,481,1,TRUE,TRUE,8,6,0,8,17,10,7,0.9032846715328468,,02-24-2015,14:03:43
12016,2,4,7,5,ProcessingTask,514,0,TRUE,FALSE,14,6,0,8,17,10,7,0.9032846715328468,,02-24-2015,14:03:43
12016,2,4,7,6,ProcessingTask,472,1,FALSE,FALSE,16,6,0,8,17,10,7,0.9032846715328468,,02-24-2015,14:03:43
12016,2,4,7,7,ProcessingTask,480,1,FALSE,FALSE,13,6,0,8,17,10,7,0.9032846715328468,,02-24-2015,14:03:43
12016,2,4,7,8,Recall,5291,0,11,2,,6,0,8,17,10,7,0.9032846715328468,,02-24-2015,14:03:43
12016,2,4,7,9,Recall,800,0,6,12,,6,0,8,17,10,7,0.9032846715328468,,02-24-2015,14:03:43
12016,2,4,7,10,Recall,392,0,5,15,,6,0,8,17,10,7,0.9032846715328468,,02-24-2015,14:03:43
12016,2,4,7,11,Recall,816,0,13,8,,6,0,8,17,10,7,0.9032846715328468,,02-24-2015,14:03:43
12016,2,4,7,12,Recall,495,0,8,14,,6,0,8,17,10,7,0.9032846715328468,,02-24-2015,14:03:43
12016,2,4,7,13,Recall,1603,0,10,16,,6,0,8,17,10,7,0.9032846715328468,,02-24-2015,14:03:43
12016,2,4,7,14,Recall,987,0,12,13,,6,0,8,17,10,7,0.9032846715328468,,02-24-2015,14:03:43
12016,2,5,2,1,ProcessingTask,543,1,TRUE,TRUE,4,2,2,8,17,10,7,0.9032846715328468,,02-24-2015,14:03:43
12016,2,5,2,2,ProcessingTask,570,1,TRUE,TRUE,1,2,2,8,17,10,7,0.9032846715328468,,02-24-2015,14:03:43
12016,2,5,2,3,Recall,962,1,4,4,,2,2,8,17,10,7,0.9032846715328468,,02-24-2015,14:03:43
12016,2,5,2,4,Recall,619,1,1,1,,2,2,8,17,10,7,0.9032846715328468,,02-24-2015,14:03:43
12016,2,6,4,1,ProcessingTask,866,1,TRUE,TRUE,6,3,2,8,17,10,7,0.9032846715328468,,02-24-2015,14:03:43
12016,2,6,4,2,ProcessingTask,499,1,FALSE,FALSE,3,3,2,8,17,10,7,0.9032846715328468,,02-24-2015,14:03:43
12016,2,6,4,3,ProcessingTask,1995,1,FALSE,FALSE,9,3,2,8,17,10,7,0.9032846715328468,,02-24-2015,14:03:43
12016,2,6,4,4,ProcessingTask,754,0,TRUE,FALSE,2,3,2,8,17,10,7,0.9032846715328468,,02-24-2015,14:03:43
12016,2,6,4,5,Recall,1969,1,6,6,,3,2,8,17,10,7,0.9032846715328468,,02-24-2015,14:03:43
12016,2,6,4,6,Recall,546,0,11,3,,3,2,8,17,10,7,0.9032846715328468,,02-24-2015,14:03:43
12016,2,6,4,7,Recall,740,0,2,9,,3,2,8,17,10,7,0.9032846715328468,,02-24-2015,14:03:43
12016,2,6,4,8,Recall,1143,1,2,2,,3,2,8,17,10,7,0.9032846715328468,,02-24-2015,14:03:43
12018,1,1,4,1,ProcessingTask,899,1,TRUE,TRUE,11,4,4,23,39,16,23,0.974169741697417,,03-12-2015,11:53:48
12018,1,1,4,2,ProcessingTask,672,1,TRUE,TRUE,13,4,4,23,39,16,23,0.974169741697417,,03-12-2015,11:53:48
12018,1,1,4,3,ProcessingTask,604,1,TRUE,TRUE,8,4,4,23,39,16,23,0.974169741697417,,03-12-2015,11:53:48
12018,1,1,4,4,ProcessingTask,806,1,FALSE,FALSE,9,4,4,23,39,16,23,0.974169741697417,,03-12-2015,11:53:48
12018,1,1,4,5,Recall,628,1,11,11,,4,4,23,39,16,23,0.974169741697417,,03-12-2015,11:53:48
12018,1,1,4,6,Recall,507,1,13,13,,4,4,23,39,16,23,0.974169741697417,,03-12-2015,11:53:48
12018,1,1,4,7,Recall,527,1,8,8,,4,4,23,39,16,23,0.974169741697417,,03-12-2015,11:53:48
12018,1,1,4,8,Recall,530,1,9,9,,4,4,23,39,16,23,0.974169741697417,,03-12-2015,11:53:48
12018,1,2,7,1,ProcessingTask,874,1,FALSE,FALSE,1,7,1,23,39,16,23,0.974169741697417,,03-12-2015,11:53:48
12018,1,2,7,2,ProcessingTask,874,1,TRUE,TRUE,2,7,1,23,39,16,23,0.974169741697417,,03-12-2015,11:53:48
12018,1,2,7,3,ProcessingTask,874,1,FALSE,FALSE,8,7,1,23,39,16,23,0.974169741697417,,03-12-2015,11:53:48
12018,1,2,7,4,ProcessingTask,4631,1,TRUE,TRUE,5,7,1,23,39,16,23,0.974169741697417,,03-12-2015,11:53:48
12018,1,2,7,5,ProcessingTask,4434,1,TRUE,TRUE,4,7,1,23,39,16,23,0.974169741697417,,03-12-2015,11:53:48
12018,1,2,7,6,ProcessingTask,935,1,FALSE,FALSE,6,7,1,23,39,16,23,0.974169741697417,,03-12-2015,11:53:48
12018,1,2,7,7,ProcessingTask,669,1,TRUE,TRUE,15,7,1,23,39,16,23,0.974169741697417,,03-12-2015,11:53:48
12018,1,2,7,8,Recall,1601,0,10,1,,7,1,23,39,16,23,0.974169741697417,,03-12-2015,11:53:48
12018,1,2,7,9,Recall,712,0,5,2,,7,1,23,39,16,23,0.974169741697417,,03-12-2015,11:53:48
12018,1,2,7,10,Recall,427,0,2,8,,7,1,23,39,16,23,0.974169741697417,,03-12-2015,11:53:48
12018,1,2,7,11,Recall,626,0,15,5,,7,1,23,39,16,23,0.974169741697417,,03-12-2015,11:53:48
12018,1,2,7,12,Recall,489,0,12,4,,7,1,23,39,16,23,0.974169741697417,,03-12-2015,11:53:48
12018,1,2,7,13,Recall,789,1,6,6,,7,1,23,39,16,23,0.974169741697417,,03-12-2015,11:53:48
12018,1,3,6,1,ProcessingTask,987,1,TRUE,TRUE,10,6,4,23,39,16,23,0.974169741697417,,03-12-2015,11:53:48
12018,1,3,6,2,ProcessingTask,1127,1,TRUE,TRUE,12,6,4,23,39,16,23,0.974169741697417,,03-12-2015,11:53:48
12018,1,3,6,3,ProcessingTask,766,1,FALSE,FALSE,11,6,4,23,39,16,23,0.974169741697417,,03-12-2015,11:53:48
12018,1,3,6,4,ProcessingTask,982,1,FALSE,FALSE,3,6,4,23,39,16,23,0.974169741697417,,03-12-2015,11:53:48
12018,1,3,6,5,ProcessingTask,843,1,TRUE,TRUE,4,6,4,23,39,16,23,0.974169741697417,,03-12-2015,11:53:48
12018,1,3,6,6,ProcessingTask,576,1,TRUE,TRUE,6,6,4,23,39,16,23,0.974169741697417,,03-12-2015,11:53:48
12018,1,3,6,7,Recall,678,0,14,10,,6,4,23,39,16,23,0.974169741697417,,03-12-2015,11:53:48
12018,1,3,6,8,Recall,555,1,12,12,,6,4,23,39,16,23,0.974169741697417,,03-12-2015,11:53:48
12018,1,3,6,9,Recall,541,0,10,11,,6,4,23,39,16,23,0.974169741697417,,03-12-2015,11:53:48
12018,1,3,6,10,Recall,455,1,3,3,,6,4,23,39,16,23,0.974169741697417,,03-12-2015,11:53:48
12018,1,3,6,11,Recall,540,1,4,4,,6,4,23,39,16,23,0.974169741697417,,03-12-2015,11:53:48
12018,1,3,6,12,Recall,566,1,6,6,,6,4,23,39,16,23,0.974169741697417,,03-12-2015,11:53:48
12018,1,4,2,1,ProcessingTask,3226,1,FALSE,FALSE,1,2,2,23,39,16,23,0.974169741697417,,03-12-2015,11:53:48
12018,1,4,2,2,ProcessingTask,844,1,FALSE,FALSE,5,2,2,23,39,16,23,0.974169741697417,,03-12-2015,11:53:48
12018,1,4,2,3,Recall,1081,1,1,1,,2,2,23,39,16,23,0.974169741697417,,03-12-2015,11:53:48
12018,1,4,2,4,Recall,590,1,5,5,,2,2,23,39,16,23,0.974169741697417,,03-12-2015,11:53:48
12018,1,5,3,1,ProcessingTask,3195,1,TRUE,TRUE,14,3,3,23,39,16,23,0.974169741697417,,03-12-2015,11:53:48
12018,1,5,3,2,ProcessingTask,1205,1,TRUE,TRUE,11,3,3,23,39,16,23,0.974169741697417,,03-12-2015,11:53:48
12018,1,5,3,3,ProcessingTask,1514,1,TRUE,TRUE,12,3,3,23,39,16,23,0.974169741697417,,03-12-2015,11:53:48
12018,1,5,3,4,Recall,445,1,14,14,,3,3,23,39,16,23,0.974169741697417,,03-12-2015,11:53:48
12018,1,5,3,5,Recall,363,1,11,11,,3,3,23,39,16,23,0.974169741697417,,03-12-2015,11:53:48
12018,1,5,3,6,Recall,284,1,12,12,,3,3,23,39,16,23,0.974169741697417,,03-12-2015,11:53:48
12018,1,6,5,1,ProcessingTask,727,1,FALSE,FALSE,7,5,2,23,39,16,23,0.974169741697417,,03-12-2015,11:53:48
12018,1,6,5,2,ProcessingTask,727,1,TRUE,TRUE,9,5,2,23,39,16,23,0.974169741697417,,03-12-2015,11:53:48
12018,1,6,5,3,ProcessingTask,2432,1,FALSE,FALSE,6,5,2,23,39,16,23,0.974169741697417,,03-12-2015,11:53:48
12018,1,6,5,4,ProcessingTask,971,1,FALSE,FALSE,14,5,2,23,39,16,23,0.974169741697417,,03-12-2015,11:53:48
12018,1,6,5,5,ProcessingTask,1251,1,FALSE,FALSE,4,5,2,23,39,16,23,0.974169741697417,,03-12-2015,11:53:48
12018,1,6,5,6,Recall,1087,0,15,7,,5,2,23,39,16,23,0.974169741697417,,03-12-2015,11:53:48
12018,1,6,5,7,Recall,1268,1,9,9,,5,2,23,39,16,23,0.974169741697417,,03-12-2015,11:53:48
12018,1,6,5,8,Recall,441,0,7,6,,5,2,23,39,16,23,0.974169741697417,,03-12-2015,11:53:48
12018,1,6,5,9,Recall,1039,1,14,14,,5,2,23,39,16,23,0.974169741697417,,03-12-2015,11:53:48
12018,1,6,5,10,Recall,669,0,3,4,,5,2,23,39,16,23,0.974169741697417,,03-12-2015,11:53:48
12018,2,1,2,1,ProcessingTask,916,1,FALSE,FALSE,2,1,2,23,39,16,23,0.974169741697417,,03-12-2015,11:53:48
12018,2,1,2,2,ProcessingTask,1392,0,TRUE,FALSE,16,1,2,23,39,16,23,0.974169741697417,,03-12-2015,11:53:48
12018,2,1,2,3,Recall,774,1,2,2,,1,2,23,39,16,23,0.974169741697417,,03-12-2015,11:53:48
12018,2,1,2,4,Recall,410,1,16,16,,1,2,23,39,16,23,0.974169741697417,,03-12-2015,11:53:48
12018,2,2,4,1,ProcessingTask,951,1,TRUE,TRUE,1,4,4,23,39,16,23,0.974169741697417,,03-12-2015,11:53:48
12018,2,2,4,2,ProcessingTask,1014,1,FALSE,FALSE,10,4,4,23,39,16,23,0.974169741697417,,03-12-2015,11:53:48
12018,2,2,4,3,ProcessingTask,1055,1,FALSE,FALSE,5,4,4,23,39,16,23,0.974169741697417,,03-12-2015,11:53:48
12018,2,2,4,4,ProcessingTask,635,1,TRUE,TRUE,7,4,4,23,39,16,23,0.974169741697417,,03-12-2015,11:53:48
12018,2,2,4,5,Recall,600,1,1,1,,4,4,23,39,16,23,0.974169741697417,,03-12-2015,11:53:48
12018,2,2,4,6,Recall,456,1,10,10,,4,4,23,39,16,23,0.974169741697417,,03-12-2015,11:53:48
12018,2,2,4,7,Recall,549,1,5,5,,4,4,23,39,16,23,0.974169741697417,,03-12-2015,11:53:48
12018,2,2,4,8,Recall,415,1,7,7,,4,4,23,39,16,23,0.974169741697417,,03-12-2015,11:53:48
12018,2,3,3,1,ProcessingTask,5185,1,TRUE,TRUE,6,3,3,23,39,16,23,0.974169741697417,,03-12-2015,11:53:48
12018,2,3,3,2,ProcessingTask,870,1,FALSE,FALSE,9,3,3,23,39,16,23,0.974169741697417,,03-12-2015,11:53:48
